pid_x,pid_y,pid_z,front_left_speed,front_right_speed,back_left_speed,back_right_speed,orientation_x,orientation_y,orientation_z,acceleration_x,acceleration_y,acceleration_z,accel_rejected,mag_rejected,gyro_x,gyro_y,gyro_z,accel_x,accel_y,accel_z,mag_x,mag_y,mag_z
-0.314724,0,0,5.31472,5.31472,5,5,0.484191,-0.0504274,-0.241931,0.0359119,-0.41735,0.0874422,0,0,3.5,-0.1925,-0.2275,-0.005124,-0.413214,-0.925858,-0.04802,0.25004,0.34062
-0.623914,0,0,5.62391,5.62391,5,5,0.959867,-0.10142,-0.47907,0.0335218,-0.409904,0.0859839,0,0,3.4475,-0.0875,-0.3675,-0.008418,-0.414068,-0.9272,-0.04802,0.25004,0.34062
-0.927203,0,0,5.9272,5.9272,5,5,1.42647,-0.146124,-0.716819,0.0361243,-0.399686,0.0881487,0,0,3.6925,0.07,-0.2275,-0.006588,-0.411994,-0.924882,-0.04802,0.25004,0.34062
-1.22504,0,0,6.22504,6.22504,5,5,1.88467,-0.188076,-0.953207,0.0368565,-0.391692,0.0879155,0,0,3.675,-0.21,-0.245,-0.006588,-0.411994,-0.924882,-0.04802,0.25004,0.34062
-1.51558,0,0,6.51558,6.51558,5,5,2.33166,-0.222714,-1.19143,0.0404982,-0.384018,0.081479,0,0,3.5525,-0.175,-0.245,-0.003538,-0.412116,-0.930982,-0.04802,0.25004,0.34062
-1.80087,0,0,6.80087,6.80087,5,5,2.77056,-0.25545,-1.43017,0.0410695,-0.376366,0.0811356,0,0,3.5525,-0.175,-0.245,-0.003538,-0.412116,-0.930982,-0.0462,0.25172,0.34468
-2.08136,0,0,7.08136,7.08136,5,5,3.2021,-0.288658,-1.66423,0.0388549,-0.369211,0.0824618,0,0,3.29,0.07,-0.2975,-0.006344,-0.412482,-0.929274,-0.0462,0.25172,0.34468
-2.35825,0,0,7.35825,7.35825,5,5,3.62807,-0.318183,-1.89761,0.0404636,-0.363744,0.0831227,0,0,3.3075,0.0175,-0.28,-0.005246,-0.414434,-0.928176,-0.0462,0.25172,0.34468
-2.63039,0,0,7.63039,7.63039,5,5,4.04676,-0.345027,-2.12918,0.0409321,-0.356453,0.082631,0,0,3.605,0.0175,-0.1925,-0.005246,-0.414434,-0.928176,-0.0462,0.25172,0.34468
-2.89604,0,0,7.89604,7.89604,5,5,4.45544,-0.369724,-2.35884,0.0408772,-0.348241,0.0791488,0,0,3.6925,-0.0875,-0.2975,-0.005734,-0.413336,-0.931104,-0.0462,0.25172,0.34468
-3.15838,0,0,8.15838,8.15838,5,5,4.85905,-0.395435,-2.58418,0.0390177,-0.341587,0.0838606,0,0,3.5525,-0.175,-0.2975,-0.008052,-0.413702,-0.925858,-0.0462,0.25172,0.34468
-3.41575,0,0,8.41575,8.41575,5,5,5.25499,-0.418737,-2.80771,0.0394244,-0.334703,0.0832486,0,0,3.4475,-0.21,-0.2275,-0.008052,-0.413702,-0.925858,-0.0462,0.25172,0.34468
-3.67023,0,0,8.67023,8.67023,5,5,5.6465,-0.434555,-3.02638,0.0421302,-0.329978,0.0846876,0,0,3.605,-0.1575,-0.2275,-0.005612,-0.415776,-0.923784,-0.05348,0.25046,0.34496
-3.91351,0,0,8.91351,8.91351,5,5,6.02078,-0.450289,-3.24114,0.0397321,-0.317618,0.0751693,0,0,3.4825,-0.1575,-0.21,-0.008296,-0.40992,-0.932568,-0.05348,0.25046,0.34496
-4.15386,0,0,9.15386,9.15386,5,5,6.39056,-0.466857,-3.45205,0.038199,-0.312668,0.0769284,0,0,3.4825,-0.175,-0.28,-0.010126,-0.411384,-0.930128,-0.05348,0.25046,0.34496
-4.38983,0,0,9.38983,9.38983,5,5,6.75358,-0.481362,-3.66111,0.0384521,-0.306374,0.0762011,0,0,3.605,-0.1575,-0.2275,-0.010126,-0.411384,-0.930128,-0.05348,0.25046,0.34496
-4.62504,0,0,9.62504,9.62504,5,5,7.11545,-0.488994,-3.87225,0.0427158,-0.303646,0.0809702,0,0,3.5525,-0.035,-0.2625,-0.005978,-0.414922,-0.924638,-0.05348,0.25046,0.34496
-4.85421,0,0,9.85421,9.85421,5,5,7.46801,-0.500215,-4.07718,0.0387811,-0.295955,0.0778515,0,0,3.605,-0.0875,-0.1575,-0.010126,-0.413336,-0.926956,-0.05348,0.25046,0.34496
-5.07904,0,0,10.079,10.079,5,5,7.81391,-0.509651,-4.2805,0.0389458,-0.289972,0.0770474,0,0,3.6225,-0.1225,-0.2625,-0.010126,-0.413336,-0.926956,-0.05348,0.25046,0.34496
-5.30008,0,0,10.3001,10.3001,5,5,8.15396,-0.519661,-4.48029,0.0374197,-0.284828,0.0754838,0,0,3.8325,-0.0525,-0.385,-0.011834,-0.414068,-0.927688,-0.05348,0.25046,0.34496
-5.51691,0,0,10.5169,10.5169,5,5,8.48756,-0.528316,-4.67885,0.0375708,-0.279067,0.0746399,0,0,3.8325,-0.0525,-0.385,-0.011834,-0.414068,-0.927688,-0.04564,0.24892,0.3451
-5.72726,0,0,10.7273,10.7273,5,5,8.81117,-0.525603,-4.88317,0.0444481,-0.272018,0.0710861,0,0,3.5,-0.1925,-0.3325,-0.00488,-0.412604,-0.930372,-0.04564,0.24892,0.3451
-5.93322,0,0,10.9332,10.9332,5,5,9.12803,-0.523766,-5.08383,0.0429582,-0.267655,0.0667817,0,0,3.465,-0.245,-0.245,-0.006344,-0.413702,-0.933788,-0.04564,0.24892,0.3451
-6.13524,0,0,11.1352,11.1352,5,5,9.43882,-0.520743,-5.2826,0.0429055,-0.262302,0.0659071,0,0,3.4825,-0.315,-0.21,-0.006344,-0.413702,-0.933788,-0.04564,0.24892,0.3451
-6.33356,0,0,11.3336,11.3336,5,5,9.74393,-0.5178,-5.47839,0.0417607,-0.256318,0.0669875,0,0,3.57,-0.245,-0.2275,-0.007442,-0.41297,-0.931836,-0.04564,0.24892,0.3451
-6.52949,0,0,11.5295,11.5295,5,5,10.0454,-0.51403,-5.67184,0.0416949,-0.254922,0.0625186,0,0,3.64,-0.1225,-0.21,-0.007442,-0.416752,-0.935374,-0.04564,0.24892,0.3451
-6.72173,0,0,11.7217,11.7217,5,5,10.3411,-0.509094,-5.86354,0.0416088,-0.249841,0.0616059,0,0,3.71,-0.14,-0.245,-0.007442,-0.416752,-0.935374,-0.04564,0.24892,0.3451
-6.90839,0,0,11.9084,11.9084,5,5,10.6283,-0.4967,-6.06335,0.0460089,-0.240028,0.0653678,0,0,3.745,-0.1225,-0.28,-0.002806,-0.411872,-0.930738,-0.05138,0.25368,0.3493
-7.0935,0,0,12.0935,12.0935,5,5,10.9131,-0.482248,-6.26223,0.047093,-0.237709,0.0662853,0,0,3.6575,-0.2275,-0.3325,-0.001464,-0.414434,-0.928908,-0.05138,0.25368,0.3493
-7.27511,0,0,12.2751,12.2751,5,5,11.1925,-0.466793,-6.45907,0.0468233,-0.232923,0.0653527,0,0,3.7275,-0.14,-0.315,-0.001464,-0.414434,-0.928908,-0.05138,0.25368,0.3493
-7.45188,0,0,12.4519,12.4519,5,5,11.4644,-0.45433,-6.65115,0.0438116,-0.227902,0.0606106,0,0,3.7625,-0.1575,-0.315,-0.00427,-0.414068,-0.93269,-0.05138,0.25368,0.3493
-7.62507,0,0,12.6251,12.6251,5,5,11.7309,-0.440815,-6.84128,0.0435758,-0.223347,0.0596776,0,0,3.64,-0.035,-0.315,-0.00427,-0.414068,-0.93269,-0.05138,0.25368,0.3493
-7.79445,0,0,12.7945,12.7945,5,5,11.9915,-0.433038,-7.02445,0.0387021,-0.217308,0.0604651,0,0,3.6225,0.0175,-0.14,-0.009028,-0.412482,-0.930982,-0.05138,0.25368,0.3493
-7.96061,0,0,12.9606,12.9606,5,5,12.2471,-0.424689,-7.20594,0.0385564,-0.212946,0.0595295,0,0,3.6925,-0.1925,-0.175,-0.009028,-0.412482,-0.930982,-0.05138,0.25368,0.3493
-8.06262,0,0,13.0626,13.0626,5,5,12.404,-0.421695,-7.38179,0.022711,-0.146642,-0.0121191,0,0,3.85,-0.245,-0.3325,-0.024888,-0.34892,-1.0015,-0.05138,0.25368,0.3493
-8.16241,0,0,13.1624,13.1624,5,5,12.5576,-0.417514,-7.55222,0.022638,-0.144026,-0.0126976,0,0,3.7275,-0.175,-0.3325,-0.024888,-0.34892,-1.0015,-0.05054,0.25004,0.3423
-8.32773,0,0,13.3277,13.3277,5,5,12.8119,-0.352803,-7.76212,0.0743549,-0.204665,0.0803907,0,0,3.6575,-0.14,-0.35,0.028182,-0.413824,-0.908168,-0.05054,0.25004,0.3423
-8.48962,0,0,13.4896,13.4896,5,5,13.061,-0.288151,-7.96913,0.0732265,-0.200427,0.0794237,0,0,3.4825,0.245,-0.175,0.028182,-0.413824,-0.908168,-0.05054,0.25004,0.3423
-8.59325,0,0,13.5932,13.5932,5,5,13.2204,-0.413714,-8.04219,-0.0715797,-0.164502,-0.0584325,0,0,3.43,0.1925,-0.1225,-0.119438,-0.38064,-1.04432,-0.05054,0.25004,0.3423
-8.59265,0,0,13.5927,13.5927,5,5,13.2195,-0.41384,-8.04201,-0.0715775,-0.164517,-0.0584288,1,0,3.08,-0.14,-0.105,-0.119438,-0.38064,-1.04432,-0.05054,0.25004,0.3423
-8.80945,0,0,13.8094,13.8094,5,5,13.553,-0.456666,-8.16694,0.0126306,-0.232132,0.16546,0,0,3.535,-0.28,-0.105,-0.035624,-0.45384,-0.820816,-0.05054,0.25004,0.3423
-9.0228,0,0,14.0228,14.0228,5,5,13.8812,-0.497162,-8.29153,0.0133373,-0.226568,0.164096,0,0,4.2,-0.49,-0.42,-0.035624,-0.45384,-0.820816,-0.05054,0.25004,0.3423
-9.22052,0,0,14.2205,14.2205,5,5,14.1854,-0.285743,-8.58569,0.187746,-0.276735,0.0611543,0,0,4.025,-0.5775,-0.735,0.143228,-0.509106,-0.92171,-0.05054,0.25004,0.3423
-9.41572,0,0,14.4157,14.4157,5,5,14.4857,-0.0854491,-8.89588,0.18425,-0.271654,0.0598674,0,0,4.5325,-0.595,-0.665,0.143228,-0.509106,-0.92171,-0.04844,0.26306,0.3528
-9.50987,0,0,14.5099,14.5099,5,5,14.6306,0.465742,-9.43032,0.358316,-0.0973828,0.167027,0,0,3.4825,4.2525,-1.05,0.327692,-0.337452,-0.814716,-0.04844,0.26306,0.3528
-9.60209,0,0,14.6021,14.6021,5,5,14.7724,1.00371,-9.95747,0.348928,-0.0950186,0.166282,0,0,3.4825,4.2525,-1.05,0.327692,-0.337452,-0.814716,-0.04844,0.26306,0.3528
-9.83844,0,0,14.8384,14.8384,5,5,15.1361,0.945468,-10.0887,-0.00394388,0.0336096,0.616374,0,0,2.1175,0.4025,-0.5075,-0.027694,-0.215086,-0.366488,-0.04844,0.26306,0.3528
-9.83673,0,0,14.8367,14.8367,5,5,15.1334,0.94641,-10.089,-0.00396032,0.033565,0.616386,1,0,2.1175,0.4025,-0.5075,-0.027694,-0.215086,-0.366488,-0.04844,0.26306,0.3528
-9.89981,0,0,14.8998,14.8998,5,5,15.2305,1.41754,-10.5792,0.296392,-0.0538754,0.159886,0,0,3.8675,-0.6825,-0.8225,0.282186,-0.304024,-0.818864,-0.04844,0.26306,0.3528
-9.96157,0,0,14.9616,14.9616,5,5,15.3255,1.87699,-11.0635,0.288377,-0.052337,0.159227,0,0,3.8675,-0.6825,-0.8225,0.282186,-0.304024,-0.818864,-0.04844,0.26306,0.3528
-10.2431,0,0,15.2431,15.2431,5,5,15.7586,2.10516,-11.3683,0.226327,-0.366044,0.161495,0,0,4.6375,-0.0175,-0.6825,0.22387,-0.62464,-0.814472,-0.04844,0.26306,0.3528
-10.2502,0,0,15.2502,15.2502,5,5,15.7695,1.7291,-11.3109,-0.291081,-0.0385023,-0.173626,0,0,4.3925,-0.0875,-0.665,-0.302316,-0.29768,-1.14717,-0.0476,0.26404,0.35098
-10.4595,0,0,15.4595,15.4595,5,5,16.0915,1.66883,-11.4402,0.00627383,-0.208589,0.178217,0,0,2.52,-0.7525,-0.6825,-0.004758,-0.472994,-0.796538,-0.0476,0.26404,0.35098
-10.6639,0,0,15.6639,15.6639,5,5,16.4061,1.61203,-11.5685,0.00726468,-0.203312,0.176708,0,0,1.995,-0.6125,-0.5775,-0.004758,-0.472994,-0.796538,-0.0476,0.26404,0.35098
-10.7013,0,0,15.7013,15.7013,5,5,16.4636,1.47139,-11.6577,-0.0838256,-0.0475965,-0.00277124,0,0,2.31,-0.2625,-0.455,-0.098698,-0.31842,-0.974414,-0.0476,0.26404,0.35098
-10.7379,0,0,15.7379,15.7379,5,5,16.5198,1.33501,-11.7449,-0.0814459,-0.0466393,-0.00299383,0,0,2.3275,0.0875,0.2625,-0.098698,-0.31842,-0.974414,-0.0476,0.26404,0.35098
-11.0532,0,0,16.0532,16.0532,5,5,17.0049,1.56537,-12.0217,0.227482,-0.391143,0.223398,0,0,2.1175,-0.2275,0.1925,0.215574,-0.670634,-0.74725,-0.0476,0.26404,0.35098
-11.3649,0,0,16.3649,16.3649,5,5,17.4844,1.79216,-12.2921,0.223525,-0.383188,0.220807,0,0,3.605,-0.2275,0.525,0.215574,-0.670634,-0.74725,-0.0476,0.26404,0.35098
-11.532,0,0,16.532,16.532,5,5,17.7415,1.54823,-12.2892,-0.132789,-0.255773,-0.0345663,0,0,3.8325,0.2275,1.3475,-0.146522,-0.547658,-0.999424,-0.0476,0.26404,0.35098
-11.5333,0,0,16.5333,16.5333,5,5,17.7435,1.54787,-12.2855,-0.132782,-0.255739,-0.034577,1,0,4.69,0.3675,1.89,-0.146522,-0.547658,-0.999424,-0.05208,0.26866,0.36288
-11.4021,0,0,16.4021,16.4021,5,5,17.5417,1.52084,-12.4492,-0.0462989,0.173238,-0.0076787,0,0,3.9725,-0.1925,1.6625,-0.060146,-0.115778,-0.973804,-0.05208,0.26866,0.36288
-11.274,0,0,16.274,16.274,5,5,17.3447,1.49403,-12.6115,-0.045831,0.169962,-0.00663623,0,0,4.375,0.0875,1.89,-0.060146,-0.115778,-0.973804,-0.05208,0.26866,0.36288
-11.2756,0,0,16.2756,16.2756,5,5,17.347,1.49239,-12.6068,0.325336,-0.359418,0.060851,1,0,4.8475,-0.1925,2.66,0.312564,-0.644648,-0.906826,-0.05208,0.26866,0.36288
-11.2752,0,0,16.2752,16.2752,5,5,17.3465,1.49031,-12.602,0.325373,-0.359427,0.0608547,1,0,3.22,-0.42,2.8,0.312564,-0.644648,-0.906826,-0.05208,0.26866,0.36288
-11.2749,0,0,16.2749,16.2749,5,5,17.346,1.4876,-12.5983,0.179637,-0.224852,0.306633,1,0,3.255,-0.9625,2.31,0.166164,-0.510204,-0.662948,-0.05208,0.26866,0.36288
-11.2744,0,0,16.2744,16.2744,5,5,17.3452,1.48532,-12.5967,0.179677,-0.224863,0.306637,1,0,3.1675,-1.085,1.0675,0.166164,-0.510204,-0.662948,-0.05208,0.26866,0.36288
-11.2744,0,0,16.2744,16.2744,5,5,17.3453,1.48412,-12.5946,-0.288022,-0.30803,-0.225607,1,0,3.605,-0.4025,1.1375,-0.303536,-0.593286,-1.19109,-0.05208,0.26866,0.36288
-11.273,0,0,16.273,16.273,5,5,17.343,1.48372,-12.5932,-0.288015,-0.308068,-0.225595,1,0,2.31,-0.07,0.63,-0.303536,-0.593286,-1.19109,-0.04816,0.27622,0.36484
-11.2712,0,0,16.2712,16.2712,5,5,17.3403,1.48374,-12.5943,-0.0740791,-0.129198,-0.285579,1,0,2.0825,-0.28,-0.8575,-0.088694,-0.414556,-1.25062,-0.04816,0.27622,0.36484
-11.2694,0,0,16.2694,16.2694,5,5,17.3376,1.48375,-12.5955,-0.0740794,-0.129243,-0.285565,1,0,2.0825,-0.28,-0.8575,-0.088694,-0.414556,-1.25062,-0.04816,0.27622,0.36484
-11.2705,0,0,16.2705,16.2705,5,5,17.3393,1.48691,-12.5978,0.00811138,-0.579008,-0.252994,1,0,4.5675,1.26,-2.0825,-0.0061,-0.863882,-1.21829,-0.04816,0.27622,0.36484
-11.2716,0,0,16.2716,16.2716,5,5,17.3409,1.49006,-12.6002,0.00805638,-0.578981,-0.253004,1,0,4.5675,1.26,-2.0825,-0.0061,-0.863882,-1.21829,-0.04816,0.27622,0.36484
-11.14,0,0,16.14,16.14,5,5,17.1385,1.24395,-12.6357,-0.192231,0.186708,-0.00854405,0,0,3.15,0.5075,-2.695,-0.211548,-0.095648,-0.976854,-0.04816,0.27622,0.36484
-11.3652,0,0,16.3652,16.3652,5,5,17.4849,1.50637,-12.9535,0.218064,-0.258569,0.186147,0,0,3.4125,-0.4375,-2.7825,0.205082,-0.546194,-0.781776,-0.04816,0.27622,0.36484
-11.5865,0,0,16.5865,16.5865,5,5,17.8254,1.76304,-13.2661,0.213586,-0.252946,0.184223,0,0,3.605,-0.98,-3.15,0.205082,-0.546194,-0.781776,-0.04816,0.27622,0.36484
-11.5863,0,0,16.5863,16.5863,5,5,17.8251,1.76314,-13.2713,0.106555,-0.136321,0.265248,1,0,3.4825,-0.9625,-3.115,0.0976,-0.429684,-0.701378,-0.04368,0.27552,0.364
-11.5862,0,0,16.5862,16.5862,5,5,17.8249,1.76212,-13.2759,0.00294552,-0.0521789,0.258242,1,0,3.5525,-1.4875,-2.59,-0.006466,-0.345626,-0.708332,-0.04368,0.27552,0.364
-11.5861,0,0,16.5861,16.5861,5,5,17.8248,1.7611,-13.2799,0.00296333,-0.0521795,0.258243,1,0,3.64,-1.3825,-2.275,-0.006466,-0.345626,-0.708332,-0.04368,0.27552,0.364
-11.586,0,0,16.586,16.586,5,5,17.8247,1.76086,-13.2837,0.106959,-0.0582885,-0.086504,1,0,3.57,-0.91,-2.31,0.097966,-0.351726,-1.05042,-0.04368,0.27552,0.364
-11.5843,0,0,16.5843,16.5843,5,5,17.8219,1.76252,-13.2856,0.10693,-0.058334,-0.0864903,1,0,2.1,0.49,-1.575,0.097966,-0.351726,-1.05042,-0.04368,0.27552,0.364
-11.711,0,0,16.711,16.711,5,5,18.017,1.55674,-13.3217,-0.109247,-0.167176,0.0142401,0,0,3.01,0.455,-0.84,-0.122732,-0.463722,-0.949526,-0.04368,0.27552,0.364
-11.836,0,0,16.836,16.836,5,5,18.2092,1.35674,-13.3576,-0.105758,-0.163962,0.0132819,0,0,3.815,0.1925,-0.2975,-0.122732,-0.463722,-0.949526,-0.04368,0.27552,0.364
-12.1546,0,0,17.1546,17.1546,5,5,18.6994,1.12173,-13.3283,-0.0788178,-0.363313,0.202335,0,0,3.815,0.0175,4.165,-0.099796,-0.671,-0.759328,-0.04368,0.27552,0.364
-12.4663,0,0,17.4663,17.4663,5,5,19.179,0.89721,-13.3063,-0.0748998,-0.355375,0.199684,0,0,3.6225,-0.385,0.7,-0.099796,-0.671,-0.759328,-0.0448,0.27468,0.36386
-12.7543,0,0,17.7543,17.7543,5,5,19.6221,0.448674,-13.1441,-0.207145,-0.255723,0.258677,0,0,3.0625,-0.8925,1.715,-0.240462,-0.578768,-0.698328,-0.0448,0.27468,0.36386
-12.7552,0,0,17.7552,17.7552,5,5,19.6235,0.445139,-13.1419,-0.284348,-0.078616,-0.109193,1,0,4.375,-1.6275,1.6275,-0.318054,-0.401868,-1.06335,-0.0448,0.27468,0.36386
-12.7545,0,0,17.7545,17.7545,5,5,19.6223,0.442264,-13.1393,-0.284298,-0.0786342,-0.109186,1,0,2.9575,-1.155,1.8025,-0.318054,-0.401868,-1.06335,-0.0448,0.27468,0.36386
-12.7539,0,0,17.7539,17.7539,5,5,19.6214,0.438922,-13.1365,-0.0935071,-0.167802,-0.0586485,1,0,3.0625,-1.3825,1.9775,-0.126514,-0.490928,-1.01321,-0.0448,0.27468,0.36386
-12.7537,0,0,17.7537,17.7537,5,5,19.621,0.436971,-13.1333,-0.093473,-0.167808,-0.0586461,1,0,3.3775,-0.5425,1.9075,-0.126514,-0.490928,-1.01321,-0.0448,0.27468,0.36386
-12.7536,0,0,17.7536,17.7536,5,5,19.621,0.436151,-13.1308,-0.252119,-0.151199,-0.217126,1,0,3.5525,-0.0525,1.3125,-0.285846,-0.474336,-1.17047,-0.0448,0.27468,0.36386
-12.7532,0,0,17.7532,17.7532,5,5,19.6203,0.438349,-13.1271,-0.252157,-0.151211,-0.217123,1,0,3.2025,1.8375,1.3475,-0.285846,-0.474336,-1.17047,-0.0448,0.27468,0.36386
-12.7523,0,0,17.7523,17.7523,5,5,19.619,0.44036,-13.1236,-0.335289,-0.283618,0.00911019,1,0,2.835,1.715,1.33,-0.369294,-0.606584,-0.945988,-0.04592,0.2716,0.36848
-12.7524,0,0,17.7524,17.7524,5,5,19.619,0.441807,-13.1215,-0.335314,-0.283617,0.00910981,1,0,3.605,1.12,0.6475,-0.369294,-0.606584,-0.945988,-0.04592,0.2716,0.36848
-12.9077,0,0,17.9077,17.9077,5,5,19.858,0.639344,-13.3629,0.146817,-0.152202,0.170577,0,0,3.5,1.015,0.385,0.11834,-0.479216,-0.784338,-0.04592,0.2716,0.36848
-13.0606,0,0,18.0606,18.0606,5,5,20.0933,0.83172,-13.6007,0.14346,-0.148358,0.169134,0,0,3.885,0.4725,0.4025,0.11834,-0.479216,-0.784338,-0.04592,0.2716,0.36848
-13.0607,0,0,18.0607,18.0607,5,5,20.0933,0.83189,-13.6013,-0.143128,-0.0424733,0.148601,1,0,3.6225,-0.1225,-0.595,-0.169458,-0.373442,-0.804712,-0.04592,0.2716,0.36848
-13.0611,0,0,18.0611,18.0611,5,5,20.0939,0.831737,-13.6025,-0.143126,-0.0424636,0.148598,1,0,3.9375,-0.42,-0.8575,-0.169458,-0.373442,-0.804712,-0.04592,0.2716,0.36848
-13.0612,0,0,18.0612,18.0612,5,5,20.0941,0.83098,-13.6046,-0.176035,-0.158603,0.221014,1,0,3.71,-0.945,-1.26,-0.20252,-0.489464,-0.732854,-0.04592,0.2716,0.36848
-13.061,0,0,18.061,18.061,5,5,20.0938,0.830114,-13.6073,-0.17602,-0.158608,0.221015,1,0,3.465,-1.1025,-1.505,-0.20252,-0.489464,-0.732854,-0.04592,0.2716,0.36848
-13.0605,0,0,18.0605,18.0605,5,5,20.0931,0.830233,-13.6112,-0.0234358,0.0851454,0.109137,1,0,3.22,-0.8225,-2.415,-0.049288,-0.245952,-0.843874,-0.04046,0.27468,0.36792
-13.0603,0,0,18.0603,18.0603,5,5,20.0927,0.833079,-13.6144,-0.140112,-0.317391,8.31098e-05,1,0,3.395,0.84,-2.52,-0.166408,-0.648064,-0.952088,-0.04046,0.27468,0.36792
-13.0597,0,0,18.0597,18.0597,5,5,20.0918,0.834239,-13.6168,-0.140132,-0.317405,8.7998e-05,1,0,3.1325,0.0525,-1.8025,-0.166408,-0.648064,-0.952088,-0.04046,0.27468,0.36792
-13.0593,0,0,18.0593,18.0593,5,5,20.0913,0.835526,-13.6188,0.00210525,0.0321119,0.337585,1,0,3.29,0.2275,-1.54,-0.023546,-0.2989,-0.617198,-0.04046,0.27468,0.36792
-13.0599,0,0,18.0599,18.0599,5,5,20.0921,0.836923,-13.6206,0.00208088,0.0321254,0.337579,1,0,4.0775,0.315,-1.4875,-0.023546,-0.2989,-0.617198,-0.04046,0.27468,0.36792
-13.0596,0,0,18.0596,18.0596,5,5,20.0918,0.838045,-13.622,-0.0664566,-0.132874,0.338196,1,0,3.4125,0.2275,-1.26,-0.092354,-0.463722,-0.616588,-0.04046,0.27468,0.36792
-13.06,0,0,18.06,18.06,5,5,20.0923,0.837417,-13.6232,-0.0664457,-0.132864,0.338193,1,0,3.9375,-0.665,-0.7175,-0.092354,-0.463722,-0.616588,-0.04046,0.27468,0.36792
-13.06,0,0,18.06,18.06,5,5,20.0923,0.835441,-13.6244,0.118247,-0.0688698,-0.144503,1,0,3.5875,-1.435,-0.525,0.093086,-0.399794,-1.09556,-0.04046,0.27468,0.36792
-13.0605,0,0,18.0605,18.0605,5,5,20.093,0.832687,-13.625,0.118295,-0.0688576,-0.144506,1,0,4.0075,-1.715,0.035,0.093086,-0.399794,-1.09556,-0.0406,0.2681,0.37604
-12.7945,0,0,17.7945,17.7945,5,5,19.6839,1.14046,-13.982,0.138193,0.337796,-0.0067981,0,0,3.395,-1.8375,-0.07,0.118462,0.013176,-0.961238,-0.0406,0.2681,0.37604
-12.533,0,0,17.533,17.533,5,5,19.2816,1.44129,-14.3394,0.132944,0.331139,-0.00456837,0,0,3.185,-0.525,0.2975,0.118462,0.013176,-0.961238,-0.0406,0.2681,0.37604
-12.3287,0,0,17.3287,17.3287,5,5,18.9672,0.846748,-14.1212,-0.403367,0.336405,0.117914,0,0,3.5175,-0.77,0.4375,-0.430538,0.023546,-0.841678,-0.0406,0.2681,0.37604
-12.1278,0,0,17.1278,17.1278,5,5,18.6582,0.264565,-13.8977,-0.393206,0.33133,0.119747,0,0,3.99,0.035,0.8575,-0.430538,0.023546,-0.841678,-0.0406,0.2681,0.37604
-12.2797,0,0,17.2797,17.2797,5,5,18.8918,0.103225,-13.9044,-0.0686964,-0.134017,0.152254,0,0,4.025,0.1225,1.1375,-0.107482,-0.445178,-0.808128,-0.0406,0.2681,0.37604
-12.4289,0,0,17.4289,17.4289,5,5,19.1214,-0.0512267,-13.9109,-0.0660007,-0.130227,0.15095,0,0,4.585,1.1725,1.33,-0.107482,-0.445178,-0.808128,-0.0406,0.2681,0.37604
-12.293,0,0,17.293,17.293,5,5,18.9123,0.785177,-14.5566,0.529989,0.174295,0.104716,0,0,4.7075,0.8225,1.435,0.50569,-0.137494,-0.855098,-0.0406,0.2681,0.37604
-12.1586,0,0,17.1586,17.1586,5,5,18.7056,1.60016,-15.2066,0.515768,0.170786,0.105598,0,0,4.9175,-0.175,1.4,0.50569,-0.137494,-0.855098,-0.0406,0.27398,0.38388
-11.9913,0,0,16.9913,16.9913,5,5,18.4482,2.07882,-15.676,0.303565,0.193679,-0.067321,0,0,4.69,-0.5425,1.3825,0.300974,-0.110288,-1.02785,-0.0406,0.27398,0.38388
-11.826,0,0,16.826,16.826,5,5,18.1939,2.54531,-16.1459,0.29543,0.189365,-0.0662384,0,0,3.9375,-0.28,0.665,0.300974,-0.110288,-1.02785,-0.0406,0.27398,0.38388
-11.8261,0,0,16.8261,16.8261,5,5,18.194,2.54455,-16.1449,-0.214675,-0.152099,-0.120582,1,0,3.6575,-0.3325,0.4725,-0.211304,-0.4514,-1.08177,-0.0406,0.27398,0.38388
-11.8256,0,0,16.8256,16.8256,5,5,18.1932,2.5448,-16.1439,-0.21468,-0.152112,-0.120578,1,0,3.1325,0.2275,0.28,-0.211304,-0.4514,-1.08177,-0.0406,0.27398,0.38388
-11.825,0,0,16.825,16.825,5,5,18.1923,2.54541,-16.1432,0.0585311,0.267012,0.0675377,1,0,3.08,0.3675,0.035,0.063074,-0.032696,-0.895114,-0.0406,0.27398,0.38388
-11.8251,0,0,16.8251,16.8251,5,5,18.1925,2.54696,-16.1424,0.0585041,0.267014,0.0675359,1,0,3.64,0.9275,-0.035,0.063074,-0.032696,-0.895114,-0.0406,0.27398,0.38388
-11.8255,0,0,16.8255,16.8255,5,5,18.1931,2.54792,-16.1421,-0.207323,-0.233451,-0.123161,1,0,3.9375,0.49,-0.2625,-0.203862,-0.532652,-1.08434,-0.0406,0.27398,0.38388
-11.8271,0,0,16.8271,16.8271,5,5,18.1955,2.55008,-16.1421,-0.207361,-0.233412,-0.123176,1,0,4.935,1.1025,-0.63,-0.203862,-0.532652,-1.08434,-0.0406,0.27398,0.38388
-11.937,0,0,16.937,16.937,5,5,18.3646,2.78463,-16.4393,0.194919,-0.159594,0.0426823,0,0,5.5125,0.6825,-0.9275,0.204228,-0.461648,-0.91866,-0.04144,0.28364,0.38206
-11.9385,0,0,16.9385,16.9385,5,5,18.3669,2.78562,-16.44,-0.186927,-0.0430471,-0.13573,1,0,4.9175,0.315,-0.84,-0.179218,-0.34526,-1.09568,-0.04144,0.28364,0.38206
-11.9397,0,0,16.9397,16.9397,5,5,18.3688,2.78567,-16.4413,-0.186928,-0.0430159,-0.13574,1,0,4.69,-0.2975,-0.945,-0.179218,-0.34526,-1.09568,-0.04144,0.28364,0.38206
-11.9402,0,0,16.9402,16.9402,5,5,18.3696,2.78559,-16.4428,-0.0136883,0.113563,0.140521,1,0,4.0425,-0.4025,-0.9975,-0.005246,-0.188856,-0.821548,-0.04144,0.28364,0.38206
-11.9402,0,0,16.9402,16.9402,5,5,18.3695,2.78424,-16.4449,-0.158354,-0.224363,-0.195127,1,0,3.6225,-1.2425,-1.1725,-0.150548,-0.52643,-1.15461,-0.04144,0.28364,0.38206
-12.0183,0,0,17.0183,17.0183,5,5,18.4897,3.3209,-16.9252,0.398294,-0.11726,0.112339,0,0,3.8675,-1.4875,-1.0325,0.41785,-0.421266,-0.848388,-0.04144,0.28364,0.38206
-12.0953,0,0,17.0953,17.0953,5,5,18.6082,3.84595,-17.3979,0.389149,-0.115485,0.111139,0,0,3.99,-0.7175,-1.155,0.41785,-0.421266,-0.848388,-0.04144,0.28364,0.38206
-12.0957,0,0,17.0957,17.0957,5,5,18.6088,3.8456,-17.3997,-0.274157,-0.295733,0.0447437,1,0,4.025,-0.63,-1.19,-0.24827,-0.601338,-0.914268,-0.04144,0.28364,0.38206
-12.0967,0,0,17.0967,17.0967,5,5,18.6103,3.84623,-17.4014,-0.274168,-0.295709,0.0447347,1,0,4.4975,-0.0525,-1.26,-0.24827,-0.601338,-0.914268,-0.04368,0.27804,0.37478
-12.3859,0,0,17.3859,17.3859,5,5,19.0553,3.80301,-17.4714,0.0424473,-0.323654,0.200147,0,0,3.885,-0.2625,-1.295,0.06893,-0.636596,-0.75762,-0.04368,0.27804,0.37478
-12.67,0,0,17.67,17.67,5,5,19.4923,3.76381,-17.541,0.0431299,-0.316454,0.197677,0,0,4.3575,0.07,-1.0675,0.06893,-0.636596,-0.75762,-0.04368,0.27804,0.37478
-12.6704,0,0,17.6704,17.6704,5,5,19.4929,3.76389,-17.5422,-0.000241861,-0.0692596,0.357753,1,0,3.9725,-0.28,-0.8925,0.025376,-0.389668,-0.598776,-0.04368,0.27804,0.37478
-12.6707,0,0,17.6707,17.6707,5,5,19.4933,3.76317,-17.5434,-0.00022928,-0.0692527,0.357751,1,0,3.8675,-0.735,-0.77,0.025376,-0.389668,-0.598776,-0.04368,0.27804,0.37478
-12.671,0,0,17.671,17.671,5,5,19.4939,3.76193,-17.5443,0.304114,0.129946,0.306848,1,0,3.955,-0.945,-0.455,0.330986,-0.190686,-0.649284,-0.04368,0.27804,0.37478
-12.6718,0,0,17.6718,17.6718,5,5,19.4951,3.75994,-17.5453,0.304149,0.129966,0.306844,1,0,4.27,-1.3825,-0.385,0.330986,-0.190686,-0.649284,-0.04368,0.27804,0.37478
-12.6723,0,0,17.6723,17.6723,5,5,19.4959,3.75783,-17.5457,-0.30786,-0.118426,-0.120897,1,0,4.0775,-1.33,-0.0175,-0.28365,-0.438834,-1.07372,-0.04368,0.27804,0.37478
-12.6732,0,0,17.6732,17.6732,5,5,19.4972,3.7567,-17.5462,-0.30784,-0.118404,-0.120903,1,0,4.34,-0.8225,-0.2975,-0.28365,-0.438834,-1.07372,-0.0406,0.27314,0.3815
-13.0105,0,0,18.0105,18.0105,5,5,20.0162,3.1021,-17.2065,-0.382204,-0.374556,0.21012,0,0,4.375,-0.1575,0.14,-0.369782,-0.703452,-0.742858,-0.0406,0.27314,0.3815
-13.3398,0,0,18.3398,18.3398,5,5,20.5228,2.46593,-16.8779,-0.371114,-0.366085,0.207567,0,0,4.4625,0.595,0.1925,-0.369782,-0.703452,-0.742858,-0.0406,0.27314,0.3815
-13.3407,0,0,18.3407,18.3407,5,5,20.5242,2.46675,-16.8766,0.204349,-0.0706385,0.306039,1,0,4.3225,0.63,0.3325,0.208132,-0.408334,-0.645136,-0.0406,0.27314,0.3815
-13.3416,0,0,18.3416,18.3416,5,5,20.5256,2.46812,-16.8745,0.204325,-0.0706152,0.30603,1,0,4.3575,1.085,0.63,0.208132,-0.408334,-0.645136,-0.0406,0.27314,0.3815
-13.3427,0,0,18.3427,18.3427,5,5,20.5273,2.46881,-16.8726,0.503654,-0.278692,-0.0387286,1,0,4.48,0.665,0.6475,0.50874,-0.616222,-0.987224,-0.0406,0.27314,0.3815
-13.344,0,0,18.344,18.344,5,5,20.5293,2.46951,-16.8704,0.503642,-0.278659,-0.0387414,1,0,4.6725,0.7525,0.8575,0.50874,-0.616222,-0.987224,-0.0406,0.27314,0.3815
-13.3451,0,0,18.3451,18.3451,5,5,20.531,2.46952,-16.8681,-0.190771,-0.0651541,0.289889,1,0,4.4975,0.385,1.015,-0.188612,-0.402966,-0.661118,-0.0406,0.27314,0.3815
-13.3466,0,0,18.3466,18.3466,5,5,20.5332,2.46943,-16.8661,-0.190769,-0.0651182,0.289876,1,0,4.7775,0.2625,0.875,-0.188612,-0.402966,-0.661118,-0.0413,0.27608,0.37086
-13.3476,0,0,18.3476,18.3476,5,5,20.5348,2.46911,-16.8644,0.0994658,0.24511,0.239089,1,0,4.445,0.0875,0.7875,0.102846,-0.093086,-0.711504,-0.0413,0.27608,0.37086
-13.3487,0,0,18.3487,18.3487,5,5,20.5365,2.46865,-16.8633,0.0994738,0.245137,0.239079,1,0,4.515,-0.1225,0.455,0.102846,-0.093086,-0.711504,-0.0413,0.27608,0.37086
-13.3497,0,0,18.3497,18.3497,5,5,20.538,2.46803,-16.8624,-0.0702309,0.247361,0.312224,1,0,4.445,-0.245,0.4025,-0.067588,-0.09089,-0.638914,-0.0413,0.27608,0.37086
-13.3558,0,0,18.3558,18.3558,5,5,20.5473,2.46796,-16.8625,-0.0702296,0.247513,0.312167,1,0,8.82,-0.1575,-0.28,-0.067588,-0.09089,-0.638914,-0.0413,0.27608,0.37086
-13.381,0,0,18.381,18.381,5,5,20.5862,3.09845,-17.3621,0.409824,-0.0257257,0.158235,0,0,4.7075,0.4375,0.0175,0.425536,-0.364292,-0.790926,-0.0413,0.27608,0.37086
-13.4062,0,0,18.4062,18.4062,5,5,20.6249,3.71288,-17.8555,0.39912,-0.0253193,0.157402,0,0,4.8825,0.14,-0.315,0.425536,-0.364292,-0.790926,-0.0413,0.27608,0.37086
-13.4074,0,0,18.4074,18.4074,5,5,20.6268,3.71329,-17.855,0.516711,-0.665598,-0.101909,1,0,4.6725,0.2275,-0.07,0.543632,-1.00394,-1.04822,-0.0413,0.27608,0.37086
-13.4084,0,0,18.4084,18.4084,5,5,20.6283,3.71344,-17.8563,0.516708,-0.665574,-0.101919,1,0,4.48,-0.2625,-0.91,0.543632,-1.00394,-1.04822,-0.04424,0.27678,0.37674
-13.572,0,0,18.572,18.572,5,5,20.8799,3.22237,-17.678,-0.270225,-0.112454,0.161475,0,0,4.795,-0.5775,-1.155,-0.255224,-0.45567,-0.785802,-0.04424,0.27678,0.37674
-13.731,0,0,18.731,18.731,5,5,21.1246,2.74461,-17.5039,-0.261898,-0.108317,0.160352,0,0,4.6725,-0.6125,-0.9975,-0.255224,-0.45567,-0.785802,-0.04424,0.27678,0.37674
-13.8808,0,0,18.8808,18.8808,5,5,21.3552,2.11504,-17.236,-0.398889,-0.135666,0.0808887,0,0,4.83,-1.26,-1.2425,-0.40382,-0.486902,-0.863638,-0.04424,0.27678,0.37674
-14.0265,0,0,19.0265,19.0265,5,5,21.5792,1.5032,-16.9728,-0.388216,-0.131906,0.0797722,0,0,4.935,-0.28,-1.435,-0.40382,-0.486902,-0.863638,-0.04424,0.27678,0.37674
-14.0277,0,0,19.0277,19.0277,5,5,21.5811,1.50289,-16.9754,0.139523,0.0493627,0.124144,1,0,4.7425,-0.805,-1.5225,0.126148,-0.305854,-0.819596,-0.04424,0.27678,0.37674
-14.0286,0,0,19.0286,19.0286,5,5,21.5824,1.50273,-16.977,0.139526,0.0493831,0.124136,1,0,4.3225,-0.525,-1.0675,0.126148,-0.305854,-0.819596,-0.04424,0.27678,0.37674
-14.0858,0,0,19.0858,19.0858,5,5,21.6705,1.43482,-17.0497,-0.0311916,-0.0334449,0.0912626,0,0,4.4625,-0.3675,-0.84,-0.046482,-0.390034,-0.851682,-0.04424,0.27678,0.37674
-14.1414,0,0,19.1414,19.1414,5,5,21.756,1.36955,-17.1214,-0.0300528,-0.0320482,0.0907365,0,0,4.1125,-0.035,-0.6475,-0.046482,-0.390034,-0.851682,-0.04424,0.27678,0.37674
-14.1407,0,0,19.1407,19.1407,5,5,21.7549,1.86725,-17.5167,0.311993,0.00264955,0.107482,0,0,4.445,-0.1575,-0.4375,0.305732,-0.355264,-0.834846,-0.04242,0.2716,0.37198
-14.0348,0,0,19.0348,19.0348,5,5,21.592,1.80771,-17.6219,-0.0645455,0.138025,-0.0627045,0,0,5.1625,-0.245,0.1925,-0.073444,-0.217404,-1.00479,-0.04242,0.2716,0.37198
-13.9317,0,0,18.9317,18.9317,5,5,21.4333,1.7486,-17.7249,-0.0635143,0.135461,-0.0616595,0,0,5.74,-0.175,1.05,-0.073444,-0.217404,-1.00479,-0.04242,0.2716,0.37198
-13.9344,0,0,18.9344,18.9344,5,5,21.4376,1.74726,-17.7233,0.121289,-0.238667,-0.00316226,1,0,5.9325,-0.4725,0.945,0.112118,-0.591212,-0.94672,-0.04242,0.2716,0.37198
-13.9363,0,0,18.9363,18.9363,5,5,21.4405,1.74631,-17.7206,0.121305,-0.238618,-0.00318073,1,0,5.215,-0.035,1.435,0.112118,-0.591212,-0.94672,-0.04242,0.2716,0.37198
-13.9253,0,0,18.9253,18.9253,5,5,21.4236,1.704,-17.8119,-0.0301781,0.0533637,0.0841186,0,0,5.39,-0.175,1.3825,-0.040748,-0.299266,-0.860222,-0.04242,0.2716,0.37198
-13.9138,0,0,18.9138,18.9138,5,5,21.4058,1.66343,-17.902,-0.0294703,0.0530834,0.0842508,0,0,4.8125,0.2975,1.47,-0.040748,-0.299266,-0.860222,-0.04242,0.2716,0.37198
-13.9154,0,0,18.9154,18.9154,5,5,21.4084,1.66294,-17.8997,0.250684,-0.0457982,-0.0635491,1,0,4.97,0.14,1.1375,0.240584,-0.398086,-1.00687,-0.04242,0.2716,0.37198
-13.9173,0,0,18.9173,18.9173,5,5,21.4113,1.66291,-17.8979,0.250685,-0.0457504,-0.0635678,1,0,5.215,0.28,0.77,0.240584,-0.398086,-1.00687,-0.04424,0.2716,0.3675
-13.92,0,0,18.92,18.92,5,5,21.4154,1.6633,-17.8962,0.0669916,-0.0731621,-0.213346,1,0,5.88,0.4725,0.595,0.05612,-0.425536,-1.15546,-0.04424,0.2716,0.3675
-13.9227,0,0,18.9227,18.9227,5,5,21.4196,1.66368,-17.8946,0.0669849,-0.0730952,-0.213372,1,0,5.88,0.4725,0.595,0.05612,-0.425536,-1.15546,-0.04424,0.2716,0.3675
-14.1289,0,0,19.1289,19.1289,5,5,21.7367,1.20446,-17.6873,-0.270265,-0.223465,0.104323,0,0,5.775,0.7,-0.1575,-0.290604,-0.580964,-0.838384,-0.04424,0.2716,0.3675
-14.3299,0,0,19.3299,19.3299,5,5,22.046,0.758077,-17.4854,-0.262475,-0.218407,0.102434,0,0,5.775,0.7,-0.1575,-0.290604,-0.580964,-0.838384,-0.04424,0.2716,0.3675
-14.524,0,0,19.524,19.524,5,5,22.3446,0.616901,-17.461,-0.0482619,-0.16643,0.191843,0,0,4.6725,-0.2275,-1.505,-0.077958,-0.533872,-0.747738,-0.04424,0.2716,0.3675
-14.5258,0,0,19.5258,19.5258,5,5,22.3474,0.617602,-17.463,0.157523,-0.0210545,0.260184,1,0,5.145,-0.14,-1.4175,0.12871,-0.388692,-0.679906,-0.04424,0.2716,0.3675
-14.5281,0,0,19.5281,19.5281,5,5,22.3509,0.618441,-17.4658,0.157508,-0.0209979,0.260161,1,0,5.5825,-0.2625,-1.925,0.12871,-0.388692,-0.679906,-0.04424,0.2716,0.3675
-14.6446,0,0,19.6446,19.6446,5,5,22.5302,0.165534,-17.2637,-0.291374,-0.119939,0.0336518,0,0,6.265,-0.4375,-1.89,-0.33001,-0.49044,-0.903532,-0.04186,0.26418,0.36848
-14.7589,0,0,19.7589,19.7589,5,5,22.706,-0.27582,-17.0656,-0.283671,-0.117109,0.0324649,0,0,7.105,-0.875,-2.135,-0.33001,-0.49044,-0.903532,-0.04186,0.26418,0.36848
-14.7624,0,0,19.7624,19.7624,5,5,22.7114,-0.275553,-17.068,-0.167292,0.0225681,-0.26191,1,0,6.5975,-0.49,-1.575,-0.213134,-0.350994,-1.1956,-0.04186,0.26418,0.36848
-14.7659,0,0,19.7659,19.7659,5,5,22.7167,-0.275286,-17.0703,-0.167297,0.0226545,-0.261946,1,0,6.5975,-0.49,-1.575,-0.213134,-0.350994,-1.1956,-0.04186,0.26418,0.36848
-14.7376,0,0,19.7376,19.7376,5,5,22.6732,-0.241916,-17.169,0.0159287,0.0397853,-0.00468822,0,0,5.635,-0.63,-1.26,-0.028548,-0.333182,-0.94062,-0.04186,0.26418,0.36848
-14.6987,0,0,19.6987,19.6987,5,5,22.6134,0.1215,-17.4558,0.207122,0.0680137,0.104898,0,0,5.46,-0.2275,-0.8225,0.169824,-0.304024,-0.832284,-0.04186,0.26418,0.36848
-14.6612,0,0,19.6612,19.6612,5,5,22.5556,0.473875,-17.7391,0.200972,0.0670698,0.105256,0,0,5.6875,-0.6475,-0.07,0.169824,-0.304024,-0.832284,-0.04186,0.26418,0.36848
-14.7181,0,0,19.7181,19.7181,5,5,22.6433,0.716675,-17.9436,0.164176,-0.0626992,0.0870456,0,0,5.74,-0.0875,0.665,0.137128,-0.435052,-0.84973,-0.0427,0.26698,0.36974
-14.7755,0,0,19.7755,19.7755,5,5,22.7315,0.952458,-18.1452,0.160061,-0.0613022,0.0863967,0,0,6.755,-0.5075,0.91,0.137128,-0.435052,-0.84973,-0.0427,0.26698,0.36974
-14.8176,0,0,19.8176,19.8176,5,5,22.7962,0.588676,-18.0109,-0.226839,-0.00490337,0.0432519,0,0,6.16,-0.49,1.3825,-0.257786,-0.379786,-0.892186,-0.0427,0.26698,0.36974
-14.8581,0,0,19.8581,19.8581,5,5,22.8586,0.234352,-17.8781,-0.220655,-0.0038827,0.0428705,0,0,6.16,-0.49,1.3825,-0.257786,-0.379786,-0.892186,-0.0427,0.26698,0.36974
-14.9512,0,0,19.9512,19.9512,5,5,23.0019,0.384727,-18.0145,0.108255,-0.0799909,0.133111,0,0,5.88,-0.2975,1.645,0.075152,-0.45811,-0.801662,-0.0427,0.26698,0.36974
-14.9547,0,0,19.9547,19.9547,5,5,23.0073,0.383636,-18.0109,0.0495961,-0.358231,-0.0347502,1,0,6.5975,0.1225,1.9075,0.016226,-0.736148,-0.968192,-0.0427,0.26698,0.36974
-14.9587,0,0,19.9587,19.9587,5,5,23.0134,0.382192,-18.0077,0.0496213,-0.358132,-0.034792,1,0,7.035,-0.14,1.82,0.016226,-0.736148,-0.968192,-0.0427,0.26698,0.36974
-15.0531,0,0,20.0531,20.0531,5,5,23.1586,0.358265,-18.0455,0.00290244,-0.0927393,0.078559,0,0,7.56,0.1575,1.9425,-0.03111,-0.47336,-0.854732,-0.0427,0.26698,0.36974
-15.1466,0,0,20.1466,20.1466,5,5,23.3025,0.335765,-18.0826,0.00329513,-0.090431,0.0775708,0,0,8.5225,-0.1575,1.2075,-0.03111,-0.47336,-0.854732,-0.0427,0.26586,0.3689
-15.1514,0,0,20.1514,20.1514,5,5,23.3099,0.335091,-18.0812,0.220402,0.140263,0.20096,1,0,7.7525,-0.1225,0.7,0.186904,-0.243024,-0.732244,-0.0427,0.26586,0.3689
-15.1555,0,0,20.1555,20.1555,5,5,23.3162,0.335178,-18.081,0.2204,0.140365,0.200916,1,0,7.14,0,-0.14,0.186904,-0.243024,-0.732244,-0.0427,0.26586,0.3689
-15.2688,0,0,20.2688,20.2688,5,5,23.4905,0.285545,-18.0973,-0.0115,-0.148481,0.034101,0,0,6.8425,0.4375,-0.4725,-0.046848,-0.53436,-0.896578,-0.0427,0.26586,0.3689
-15.3799,0,0,20.3799,20.3799,5,5,23.6614,0.238106,-18.1147,-0.0106721,-0.145745,0.0329111,0,0,7.0175,0.2975,-0.9975,-0.046848,-0.53436,-0.896578,-0.0427,0.26586,0.3689
-15.3846,0,0,20.3846,20.3846,5,5,23.6687,0.238889,-18.1164,0.213941,-0.0316851,-0.123161,1,0,7.665,-0.07,-1.3125,0.17873,-0.420534,-1.0514,-0.0427,0.26586,0.3689
-15.3895,0,0,20.3895,20.3895,5,5,23.6762,0.239555,-18.1186,0.21393,-0.0315647,-0.123214,1,0,7.8225,-0.245,-1.54,0.17873,-0.420534,-1.0514,-0.0427,0.26586,0.3689
-15.3741,0,0,20.3741,20.3741,5,5,23.6525,-0.196059,-17.947,-0.276316,0.0934824,0.054,0,0,8.1725,-0.4725,-1.7325,-0.321226,-0.29524,-0.875716,-0.0427,0.26586,0.3689
-15.3582,0,0,20.3582,20.3582,5,5,23.628,-0.619836,-17.7793,-0.26892,0.0930683,0.0541238,0,0,8.2775,-0.035,-1.295,-0.321226,-0.29524,-0.875716,-0.04172,0.26838,0.37044
-15.4857,0,0,20.4857,20.4857,5,5,23.8241,-0.517847,-17.8718,0.0893839,-0.15354,0.0886636,0,0,7.77,0.2625,-1.26,0.040382,-0.54473,-0.840092,-0.04172,0.26838,0.37044
-15.6111,0,0,20.6111,20.6111,5,5,24.0172,-0.417865,-17.9627,0.087639,-0.150454,0.0873104,0,0,8.05,0.28,-1.1725,0.040382,-0.54473,-0.840092,-0.04172,0.26838,0.37044
-15.6162,0,0,20.6162,20.6162,5,5,24.0249,-0.417284,-17.9631,0.186397,-0.448687,-0.0559792,1,0,7.91,0.1225,-0.5775,0.139568,-0.842776,-0.982222,-0.04172,0.26838,0.37044
-15.6218,0,0,20.6218,20.6218,5,5,24.0335,-0.417301,-17.9625,0.186397,-0.448549,-0.0560407,1,0,8.4525,0.0525,0.1225,0.139568,-0.842776,-0.982222,-0.04172,0.26838,0.37044
-15.6275,0,0,20.6275,20.6275,5,5,24.0424,-0.41818,-17.9617,0.0538715,-0.568214,-0.29905,1,0,8.575,-0.3675,0.42,0.006466,-0.962458,-1.22329,-0.04172,0.26838,0.37044
-15.6332,0,0,20.6332,20.6332,5,5,24.051,-0.41972,-17.96,0.0538983,-0.568077,-0.299112,1,0,8.435,-0.525,1.015,0.006466,-0.962458,-1.22329,-0.04172,0.26838,0.37044
-15.6385,0,0,20.6385,20.6385,5,5,24.0593,-0.421406,-17.9586,-0.369571,-0.167613,-0.151141,1,0,8.2425,-0.665,0.91,-0.418826,-0.562542,-1.07641,-0.04172,0.26838,0.37044
-15.6443,0,0,20.6443,20.6443,5,5,24.0681,-0.423354,-17.9568,-0.369537,-0.167473,-0.151204,1,0,8.5575,-0.7,1.2075,-0.418826,-0.562542,-1.07641,-0.04172,0.26838,0.37044
-15.7295,0,0,20.7295,20.7295,5,5,24.1993,-1.09276,-17.6236,-0.455044,-0.0409998,0.0428384,0,0,8.19,-0.665,1.12,-0.516426,-0.438224,-0.882792,-0.04634,0.26642,0.36372
-15.7352,0,0,20.7352,20.7352,5,5,24.208,-1.09419,-17.6216,0.296006,-0.0938647,-0.0545994,1,0,8.4875,-0.385,1.1725,0.237778,-0.491172,-0.979416,-0.04634,0.26642,0.36372
-15.7415,0,0,20.7415,20.7415,5,5,24.2178,-1.09556,-17.6204,0.29603,-0.093709,-0.0546699,1,0,9.1,-0.5425,0.7175,0.237778,-0.491172,-0.979416,-0.04634,0.26642,0.36372
-15.8775,0,0,20.8775,20.8775,5,5,24.427,-0.934979,-17.7302,0.118896,-0.112711,0.175753,0,0,9.065,-0.805,0.3675,0.062708,-0.513498,-0.749324,-0.04634,0.26642,0.36372
-16.0112,0,0,21.0112,21.0112,5,5,24.6326,-0.777955,-17.8378,0.116155,-0.10943,0.1743,0,0,9.065,-0.805,0.3675,0.062708,-0.513498,-0.749324,-0.04634,0.26642,0.36372
-16.0171,0,0,21.0171,21.0171,5,5,24.6417,-0.779683,-17.8386,-0.111236,-0.225306,-0.0502702,1,0,8.6975,-1.2075,-0.2275,-0.165676,-0.629398,-0.972096,-0.04634,0.26642,0.36372
-16.023,0,0,21.023,21.023,5,5,24.6508,-0.781412,-17.8394,-0.111206,-0.225162,-0.0503369,1,0,8.6975,-1.2075,-0.2275,-0.165676,-0.629398,-0.972096,-0.04634,0.26642,0.36372
-15.9713,0,0,20.9713,20.9713,5,5,24.5712,-1.02613,-17.7665,-0.170594,0.100236,-0.0246153,0,0,8.4525,-0.2975,-0.9275,-0.229604,-0.303048,-0.947086,-0.0385,0.26418,0.36568
-15.976,0,0,20.976,20.976,5,5,24.5784,-1.02554,-17.768,0.502548,-0.0983491,-0.0278642,1,0,7.63,-0.14,-1.155,0.446398,-0.501542,-0.950258,-0.0385,0.26418,0.36568
-15.9807,0,0,20.9807,20.9807,5,5,24.5856,-1.02495,-17.7694,0.502538,-0.0982344,-0.0279165,1,0,7.63,-0.14,-1.155,0.446398,-0.501542,-0.950258,-0.0385,0.26418,0.36568
-15.9863,0,0,20.9863,20.9863,5,5,24.5944,-1.0248,-17.7702,0.26904,-0.150854,-0.0123654,1,0,8.4875,-0.1925,-0.6475,0.211914,-0.554246,-0.934764,-0.0385,0.26418,0.36568
-15.992,0,0,20.992,20.992,5,5,24.6031,-1.02466,-17.7709,0.269037,-0.150716,-0.0124289,1,0,8.4875,-0.1925,-0.6475,0.211914,-0.554246,-0.934764,-0.0385,0.26418,0.36568
-16.1081,0,0,21.1081,21.1081,5,5,24.7816,-1.35373,-17.6063,-0.179212,-0.0509668,0.152511,0,0,9.3625,4.4275,-0.2625,-0.244,-0.457378,-0.769698,-0.0385,0.26418,0.36568
-16.2211,0,0,21.2211,21.2211,5,5,24.9556,-1.67371,-17.4443,-0.17363,-0.0482751,0.151101,0,0,9.3625,4.4275,-0.2625,-0.244,-0.457378,-0.769698,-0.0385,0.26418,0.36568
-16.2534,0,0,21.2534,21.2534,5,5,25.0053,-1.76141,-17.4297,-0.0563238,-0.0453109,-0.0273363,0,0,8.8725,0,-0.0875,-0.127734,-0.455182,-0.946354,-0.0385,0.26418,0.36568
-16.285,0,0,21.285,21.285,5,5,25.0539,-1.84721,-17.3983,-0.0548271,-0.044562,-0.027738,0,0,8.8725,0,-0.0875,-0.127734,-0.455182,-0.946354,-0.05012,0.25998,0.37086
-16.2906,0,0,21.2906,21.2906,5,5,25.0625,-1.84709,-17.3971,-0.00283326,-0.091934,-0.131447,1,0,8.4175,0.2625,0.3675,-0.075518,-0.50264,-1.0492,-0.05012,0.25998,0.37086
-16.2962,0,0,21.2962,21.2962,5,5,25.071,-1.84697,-17.3959,-0.00283533,-0.0917987,-0.13151,1,0,8.4175,0.2625,0.3675,-0.075518,-0.50264,-1.0492,-0.05012,0.25998,0.37086
-16.064,0,0,21.064,21.064,5,5,24.7139,-1.63613,-17.5733,0.0965064,0.310134,-0.0358372,0,0,8.8725,-0.0875,0.49,0.027938,-0.095526,-0.956968,-0.05012,0.25998,0.37086
-15.8363,0,0,20.8363,20.8363,5,5,24.3635,-1.43127,-17.7517,0.0929321,0.304612,-0.0332109,0,0,8.8725,-0.0875,0.49,0.027938,-0.095526,-0.956968,-0.05012,0.25998,0.37086
-15.8423,0,0,20.8423,20.8423,5,5,24.3728,-1.43191,-17.7512,0.0127627,-0.193638,-0.218439,1,0,8.855,-0.2975,0.2275,-0.052582,-0.593408,-1.1407,-0.05012,0.25998,0.37086
-15.79,0,0,20.79,20.79,5,5,24.2924,-1.45992,-17.7721,-0.0319412,0.0493308,-0.109923,0,0,8.47,-0.07,0.1225,-0.097966,-0.349408,-1.03358,-0.05012,0.25998,0.37086
-15.7385,0,0,20.7385,20.7385,5,5,24.2131,-1.48777,-17.7928,-0.0314552,0.0480648,-0.109366,0,0,8.3125,-0.2275,0.2625,-0.097966,-0.349408,-1.03358,-0.05012,0.25998,0.37086
-15.7655,0,0,20.7655,20.7655,5,5,24.2546,-1.54877,-17.7789,-0.0326992,-1.48347e-05,0.0530944,0,0,9.1,-0.28,0.455,-0.100284,-0.398086,-0.872056,-0.05012,0.25998,0.37086
-15.7923,0,0,20.7923,20.7923,5,5,24.2958,-1.60837,-17.782,-0.0316594,0.00062879,0.0527727,0,0,9.38,-0.4025,0.0875,-0.100284,-0.398086,-0.872056,-0.05124,0.26852,0.36484
-15.7739,0,0,20.7739,20.7739,5,5,24.2675,-1.3104,-17.9863,0.19445,0.000599477,-0.012558,0,0,8.645,-0.63,-0.0525,0.132004,-0.39772,-0.937204,-0.05124,0.26852,0.36484
-15.7558,0,0,20.7558,20.7558,5,5,24.2397,-1.02065,-18.1888,0.189394,0.000198717,-0.0122646,0,0,8.3125,-0.735,-0.14,0.132004,-0.39772,-0.937204,-0.05124,0.26852,0.36484
-15.7602,0,0,20.7602,20.7602,5,5,24.2465,-1.02123,-18.1892,-0.353151,0.320523,-0.19354,1,0,7.4025,-0.5075,-0.315,-0.412848,-0.077836,-1.11703,-0.05124,0.26852,0.36484
-15.7647,0,0,20.7647,20.7647,5,5,24.2534,-1.02163,-18.1898,-0.353144,0.320633,-0.193589,1,0,7.4725,-0.4375,-0.42,-0.412848,-0.077836,-1.11703,-0.05124,0.26852,0.36484
-15.7063,0,0,20.7063,20.7063,5,5,24.1635,-0.703202,-18.4174,0.214104,0.0245444,-0.096232,0,0,7.2975,-0.0175,-0.455,0.162382,-0.372222,-1.02114,-0.05124,0.26852,0.36484
-15.6498,0,0,20.6498,20.6498,5,5,24.0766,-0.393845,-18.6434,0.208705,0.0231811,-0.0955649,0,0,7.7525,-0.175,-0.4025,0.162382,-0.372222,-1.02114,-0.05124,0.26852,0.36484
-15.6111,0,0,20.6111,20.6111,5,5,24.0171,-0.335878,-18.7341,0.0282594,0.0727969,0.0338366,0,0,8.7325,-0.42,-0.2625,-0.017812,-0.321714,-0.893162,-0.05124,0.26852,0.36484
-15.5731,0,0,20.5731,20.5731,5,5,23.9586,-0.279263,-18.8251,0.0272713,0.0718661,0.0342566,0,0,8.505,-0.105,-0.2975,-0.017812,-0.321714,-0.893162,-0.04928,0.26894,0.36806
-15.5789,0,0,20.5789,20.5789,5,5,23.9675,-0.279256,-18.8258,-0.112923,0.117316,0.154192,1,0,8.5575,-0.245,-0.5775,-0.1586,-0.276452,-0.77409,-0.04928,0.26894,0.36806
-15.5841,0,0,20.5841,20.5841,5,5,23.9756,-0.278815,-18.8263,-0.112931,0.117446,0.154134,1,0,8.1375,0.0175,-0.6125,-0.1586,-0.276452,-0.77409,-0.04928,0.26894,0.36806
-15.6694,0,0,20.6694,20.6694,5,5,24.1068,-0.028078,-18.9915,0.170735,-0.0868525,0.122598,0,0,7.14,0.4025,-0.525,0.130662,-0.482632,-0.804468,-0.04928,0.26894,0.36806
-15.7535,0,0,20.7535,20.7535,5,5,24.2362,0.216214,-19.1535,0.166472,-0.0847944,0.121666,0,0,7.2275,0.3675,-0.315,0.130662,-0.482632,-0.804468,-0.04928,0.26894,0.36806
-15.7571,0,0,20.7571,20.7571,5,5,24.2417,0.216644,-19.1534,0.423406,-0.161281,0.0377762,1,0,6.6675,0.175,-0.245,0.388692,-0.559126,-0.887672,-0.04928,0.26894,0.36806
-15.7626,0,0,20.7626,20.7626,5,5,24.2501,0.216886,-19.1532,0.423402,-0.161146,0.0377156,1,0,8.33,0.07,-0.21,0.388692,-0.559126,-0.887672,-0.04928,0.26894,0.36806
-15.7688,0,0,20.7688,20.7688,5,5,24.2597,0.216648,-19.153,-0.153165,0.053826,-0.132636,1,0,8.925,-0.175,-0.07,-0.19032,-0.344528,-1.05664,-0.04928,0.26894,0.36806
-15.7748,0,0,20.7748,20.7748,5,5,24.2689,0.216407,-19.1523,-0.153161,0.0539733,-0.132703,1,0,8.785,-0.035,0.245,-0.19032,-0.344528,-1.05664,-0.04564,0.26474,0.36302
-15.7808,0,0,20.7808,20.7808,5,5,24.2782,0.21537,-19.1516,-0.2004,-0.00926315,0.250216,1,0,8.785,-0.49,0.3675,-0.237778,-0.407846,-0.676612,-0.04564,0.26474,0.36302
-15.7868,0,0,20.7868,20.7868,5,5,24.2874,0.214334,-19.151,-0.200382,-0.00911583,0.250149,1,0,8.785,-0.49,0.3675,-0.237778,-0.407846,-0.676612,-0.04564,0.26474,0.36302
-15.6193,0,0,20.6193,20.6193,5,5,24.0296,0.422186,-19.3552,0.093873,0.226872,0.0231652,0,0,7,-0.035,0.0525,0.061366,-0.167994,-0.903654,-0.04564,0.26474,0.36302
-15.455,0,0,20.455,20.455,5,5,23.7769,0.623936,-19.5593,0.0903519,0.222826,0.0249233,0,0,7,-0.035,0.0525,0.061366,-0.167994,-0.903654,-0.04564,0.26474,0.36302
-15.4586,0,0,20.4586,20.4586,5,5,23.7824,0.623794,-19.5588,0.242333,0.0805149,-0.237242,1,0,6.72,-0.0525,0.07,0.213988,-0.310246,-1.16376,-0.04564,0.26474,0.36302
-15.4622,0,0,20.4622,20.4622,5,5,23.788,0.623652,-19.5583,0.242335,0.080604,-0.237281,1,0,6.72,-0.0525,0.07,0.213988,-0.310246,-1.16376,-0.04564,0.26474,0.36302
-15.3671,0,0,20.3671,20.3671,5,5,23.6418,0.477187,-19.5589,-0.122603,0.137142,-0.0846369,0,0,8.2075,-0.035,-0.0175,-0.155062,-0.251442,-1.01333,-0.04564,0.26474,0.36302
-15.2741,0,0,20.2741,20.2741,5,5,23.4986,0.331956,-19.5458,-0.120068,0.13486,-0.0836217,0,0,8.2075,-0.035,-0.0175,-0.155062,-0.251442,-1.01333,-0.04494,0.25788,0.36932
-15.2797,0,0,20.2797,20.2797,5,5,23.5073,0.332085,-19.5461,0.0480661,0.0201989,0.103938,1,0,8.435,-0.0875,-0.4025,0.013786,-0.366122,-0.82716,-0.04494,0.25788,0.36932
-15.2853,0,0,20.2853,20.2853,5,5,23.5159,0.332214,-19.5464,0.0480638,0.020337,0.103878,1,0,8.435,-0.0875,-0.4025,0.013786,-0.366122,-0.82716,-0.04494,0.25788,0.36932
-15.2886,0,0,20.2886,20.2886,5,5,23.5209,0.331864,-19.5466,0.355793,0.0537568,0.492606,1,0,6.37,-0.3325,-0.2625,0.322812,-0.332816,-0.441396,-0.04494,0.25788,0.36932
-15.2918,0,0,20.2918,20.2918,5,5,23.5258,0.331514,-19.5468,0.355799,0.053836,0.492572,1,0,6.37,-0.3325,-0.2625,0.322812,-0.332816,-0.441396,-0.04494,0.25788,0.36932
-15.3163,0,0,20.3163,20.3163,5,5,23.5636,0.117109,-19.4623,-0.131139,0.0195176,0.0647072,0,0,6.3525,-0.105,-0.42,-0.169946,-0.367708,-0.865712,-0.04494,0.25788,0.36932
-15.3399,0,0,20.3399,20.3399,5,5,23.5999,-0.0917057,-19.3786,-0.127495,0.0200995,0.064454,0,0,6.3525,-0.105,-0.42,-0.169946,-0.367708,-0.865712,-0.04494,0.25788,0.36932
-15.3456,0,0,20.3456,20.3456,5,5,23.6086,-0.0923439,-19.3781,0.0576605,-0.0595102,-0.355476,1,0,8.47,-0.3325,0.1575,0.015982,-0.447374,-1.28234,-0.04494,0.25788,0.36932
-15.3512,0,0,20.3512,20.3512,5,5,23.6173,-0.0929821,-19.3777,0.0576716,-0.0593712,-0.355537,1,0,8.47,-0.3325,0.1575,0.015982,-0.447374,-1.28234,-0.04634,0.2604,0.37156
-15.4054,0,0,20.4054,20.4054,5,5,23.7006,0.0999532,-19.5057,0.136307,-0.0687863,0.0576012,0,0,8.1725,-0.175,0.2275,0.098332,-0.45811,-0.871812,-0.04634,0.2604,0.37156
-15.4092,0,0,20.4092,20.4092,5,5,23.7065,0.0992572,-19.505,0.00973117,0.197055,0.156042,1,0,6.86,-0.315,0.28,-0.028792,-0.192638,-0.77409,-0.04634,0.2604,0.37156
-15.4123,0,0,20.4123,20.4123,5,5,23.7112,0.0983867,-19.5038,0.00974636,0.197131,0.156009,1,0,6.2825,-0.28,0.6125,-0.028792,-0.192638,-0.77409,-0.04634,0.2604,0.37156
-15.4153,0,0,20.4153,20.4153,5,5,23.7159,0.0969813,-19.5029,-0.0136758,0.0146259,-0.287622,1,0,6.195,-0.63,0.595,-0.052338,-0.375028,-1.21427,-0.04634,0.2604,0.37156
-15.4196,0,0,20.4196,20.4196,5,5,23.7225,0.0957019,-19.5024,-0.0136535,0.0147314,-0.287669,1,0,7.2975,-0.665,0.3325,-0.052338,-0.375028,-1.21427,-0.04634,0.2604,0.37156
-15.3726,0,0,20.3726,20.3726,5,5,23.6502,0.351355,-19.6932,0.164963,0.0415365,-0.0223467,0,0,7.6825,-0.7875,0.035,0.131516,-0.34709,-0.951478,-0.04634,0.2604,0.37156
-15.3271,0,0,20.3271,20.3271,5,5,23.5802,0.600698,-19.8822,0.160612,0.0404023,-0.0218903,0,0,7.91,-0.3675,0.07,0.131516,-0.34709,-0.951478,-0.04634,0.2604,0.37156
-15.3184,0,0,20.3184,20.3184,5,5,23.5668,0.654028,-19.9597,0.0334574,0.00818634,-0.0155356,0,0,7.875,-0.175,0.14,0.004758,-0.379054,-0.945256,-0.05376,0.26278,0.35448
-15.3092,0,0,20.3092,20.3092,5,5,23.5526,0.706103,-20.0373,0.0325486,0.00795553,-0.0154467,0,0,7.245,-0.2975,-0.4375,0.004758,-0.379054,-0.945256,-0.05376,0.26278,0.35448
-15.3134,0,0,20.3134,20.3134,5,5,23.559,0.706167,-20.0384,0.133016,-0.214091,-0.255487,1,0,7.1925,-0.2975,-0.7875,0.105652,-0.600972,-1.1834,-0.05376,0.26278,0.35448
-15.3164,0,0,20.3164,20.3164,5,5,23.5636,0.706679,-20.0395,0.133007,-0.214017,-0.255519,1,0,6.1775,-0.0875,-0.9625,0.105652,-0.600972,-1.1834,-0.05376,0.26278,0.35448
-15.3988,0,0,20.3988,20.3988,5,5,23.6905,0.164342,-19.7738,-0.312734,0.0156844,0.15775,0,0,6.86,-0.665,-0.9975,-0.351482,-0.373564,-0.772504,-0.05376,0.26278,0.35448
-15.4789,0,0,20.4789,20.4789,5,5,23.8137,-0.36514,-19.5109,-0.303493,0.0176466,0.156869,0,0,7.35,-0.875,-0.7875,-0.351482,-0.373564,-0.772504,-0.05376,0.26278,0.35448
-15.4835,0,0,20.4835,20.4835,5,5,23.8207,-0.365888,-19.5122,0.0618273,-0.0445261,-0.183256,1,0,7.525,-0.805,-0.7525,0.015372,-0.435784,-1.10996,-0.05376,0.26278,0.35448
-15.4886,0,0,20.4886,20.4886,5,5,23.8287,-0.365843,-19.5123,0.0618265,-0.0443992,-0.183312,1,0,8.05,-0.0875,-0.28,0.015372,-0.435784,-1.10996,-0.05376,0.26278,0.35448
-15.4937,0,0,20.4937,20.4937,5,5,23.8364,-0.366058,-19.5119,0.373563,-0.147839,-0.0306648,1,0,7.945,-0.1225,0.0175,0.328424,-0.53924,-0.958432,-0.0518,0.26264,0.35924
-15.4984,0,0,20.4984,20.4984,5,5,23.8437,-0.366676,-19.5107,-0.123425,-0.153341,-0.0385845,1,0,7.6475,-0.14,0.56,-0.170678,-0.544852,-0.96624,-0.0518,0.26264,0.35924
-15.5026,0,0,20.5026,20.5026,5,5,23.8501,-0.367352,-19.5093,-0.123413,-0.153239,-0.03863,1,0,7.21,-0.1225,0.6825,-0.170678,-0.544852,-0.96624,-0.0518,0.26264,0.35924
-15.506,0,0,20.506,20.506,5,5,23.8554,-0.368659,-19.508,0.122133,-0.0647347,0.378989,1,0,6.5625,-0.4725,0.805,0.075884,-0.456524,-0.551806,-0.0518,0.26264,0.35924
-15.5103,0,0,20.5103,20.5103,5,5,23.862,-0.369342,-19.5067,0.122144,-0.0646295,0.378942,1,0,7.2975,-0.1575,0.6125,0.075884,-0.456524,-0.551806,-0.0518,0.26264,0.35924
-15.5532,0,0,20.5532,20.5532,5,5,23.928,-0.258299,-19.5878,0.0876483,-0.093126,-0.0357287,0,0,7.175,-0.0875,1.1025,0.043188,-0.486048,-0.962824,-0.0518,0.26264,0.35924
-15.5958,0,0,20.5958,20.5958,5,5,23.9936,-0.150311,-19.668,0.0857635,-0.0920779,-0.0361871,0,0,7.4375,-0.3325,1.0325,0.043188,-0.486048,-0.962824,-0.0518,0.26264,0.35924
-15.7159,0,0,20.7159,20.7159,5,5,24.1784,-0.652038,-19.4034,-0.309541,-0.0763353,0.100512,0,0,7.7175,-0.805,0.5425,-0.362584,-0.473238,-0.825818,-0.0518,0.26264,0.35924
-15.832,0,0,20.832,20.832,5,5,24.357,-1.13851,-19.142,-0.301052,-0.0735484,0.0991099,0,0,7.49,-0.035,0.07,-0.362584,-0.473238,-0.825818,-0.05012,0.2618,0.35966
-15.836,0,0,20.836,20.836,5,5,24.363,-1.13896,-19.142,0.0137255,-0.0169078,0.453281,1,0,6.9825,-0.3325,-0.105,-0.046482,-0.416752,-0.474336,-0.05012,0.2618,0.35966
-15.8392,0,0,20.8392,20.8392,5,5,24.3681,-1.1385,-19.1425,0.0137174,-0.0168274,0.453245,1,0,6.4225,0.035,-0.595,-0.046482,-0.416752,-0.474336,-0.05012,0.2618,0.35966
-15.8938,0,0,20.8938,20.8938,5,5,24.4519,-0.779946,-19.3442,0.263552,-0.120969,0.0182352,0,0,5.7575,-0.1225,-0.7,0.210694,-0.52216,-0.905484,-0.05012,0.2618,0.35966
-15.9491,0,0,20.9491,20.9491,5,5,24.5371,-0.430792,-19.5434,0.257459,-0.11959,0.0176778,0,0,6.9125,-0.4025,-1.05,0.210694,-0.52216,-0.905484,-0.05012,0.2618,0.35966
-15.9532,0,0,20.9532,20.9532,5,5,24.5433,-0.431039,-19.5454,0.000277716,0.0656538,0.204022,1,0,7.105,-0.7175,-1.2425,-0.04758,-0.337208,-0.720532,-0.05012,0.2618,0.35966
-15.959,0,0,20.959,20.959,5,5,24.5523,-0.431414,-19.5465,0.000284271,0.0657954,0.203957,1,0,8.5925,-0.56,-0.7175,-0.04758,-0.337208,-0.720532,-0.05012,0.2618,0.35966
-15.9366,0,0,20.9366,20.9366,5,5,24.5178,-0.497349,-19.5479,-0.0521402,0.0189584,-0.0755092,0,0,8.085,-0.6475,-0.665,-0.101382,-0.383446,-0.998082,-0.05012,0.2618,0.35966
-15.9139,0,0,20.9139,20.9139,5,5,24.4829,-0.561217,-19.548,-0.0510255,0.0183996,-0.0752658,0,0,7.56,-0.105,-0.14,-0.101382,-0.383446,-0.998082,-0.05012,0.2618,0.35966
-15.918,0,0,20.918,20.918,5,5,24.4892,-0.562069,-19.5478,-0.179421,0.11559,0.103087,1,0,7.1225,-0.49,0.105,-0.230336,-0.286456,-0.82106,-0.05054,0.25886,0.36092
-15.9207,0,0,20.9207,20.9207,5,5,24.4935,-0.562449,-19.5463,-0.179414,0.115658,0.103056,1,0,6.0025,0.07,0.665,-0.230336,-0.286456,-0.82106,-0.05054,0.25886,0.36092
-15.8136,0,0,20.8136,20.8136,5,5,24.3286,-0.226077,-19.7741,0.202983,0.12429,-0.0137488,0,0,6.6675,-0.805,0.735,0.159576,-0.275232,-0.93818,-0.05054,0.25886,0.36092
-15.7087,0,0,20.7087,20.7087,5,5,24.1673,0.101142,-20.001,0.197272,0.121726,-0.0125868,0,0,6.6675,-0.805,0.735,0.159576,-0.275232,-0.93818,-0.05054,0.25886,0.36092
-15.7129,0,0,20.7129,20.7129,5,5,24.1737,0.0998301,-19.9996,0.167531,0.0453762,0.235232,1,0,7.175,-0.455,0.84,0.129686,-0.351604,-0.692228,-0.05054,0.25886,0.36092
-15.717,0,0,20.717,20.717,5,5,24.18,0.0985178,-19.9981,0.167554,0.0454779,0.235186,1,0,7.175,-0.455,0.84,0.129686,-0.351604,-0.692228,-0.05054,0.25886,0.36092
-15.9053,0,0,20.9053,20.9053,5,5,24.4697,0.00990162,-19.9275,-0.0230897,-0.202962,0.147287,0,0,6.6675,-0.6475,0.14,-0.063318,-0.604388,-0.777384,-0.05054,0.25886,0.36092
-16.0897,0,0,21.0897,21.0897,5,5,24.7535,-0.0753182,-19.8584,-0.0216024,-0.198459,0.145224,0,0,6.6675,-0.6475,0.14,-0.063318,-0.604388,-0.777384,-0.05054,0.25886,0.36092
-16.0937,0,0,21.0937,21.0937,5,5,24.7595,-0.0753894,-19.8593,0.269479,0.0876577,-0.176577,1,0,7,-0.35,-0.6825,0.228994,-0.318664,-1.09666,-0.04718,0.25102,0.36428
-16.2852,0,0,21.2852,21.2852,5,5,25.0541,-0.486007,-19.6008,-0.244043,-0.185654,0.135851,0,0,6.8775,0.07,-0.84,-0.293898,-0.596336,-0.78446,-0.04718,0.25102,0.36428
-16.4715,0,0,21.4715,21.4715,5,5,25.3407,-0.886022,-19.3482,-0.237061,-0.181164,0.133646,0,0,6.4225,-0.35,-1.015,-0.293898,-0.596336,-0.78446,-0.04718,0.25102,0.36428
-16.393,0,0,21.393,21.393,5,5,25.2201,-0.692603,-19.4751,0.117581,0.0813561,-0.0581958,0,0,6.51,-0.4025,-1.0325,0.065636,-0.332206,-0.975756,-0.04718,0.25102,0.36428
-16.3171,0,0,21.3171,21.3171,5,5,25.1033,-0.504648,-19.6016,0.114301,0.0795259,-0.0572982,0,0,7.1925,-0.49,-1.1025,0.065636,-0.332206,-0.975756,-0.04718,0.25102,0.36428
-16.3209,0,0,21.3209,21.3209,5,5,25.1091,-0.50346,-19.6027,0.0656861,-0.0662017,0.200974,1,0,6.8425,0.28,-1.0675,0.016836,-0.477874,-0.719434,-0.04718,0.25102,0.36428
-16.3251,0,0,21.3251,21.3251,5,5,25.1155,-0.503268,-19.6034,0.0656828,-0.0660997,0.200926,1,0,7.21,-0.175,-0.665,0.016836,-0.477874,-0.719434,-0.04718,0.25102,0.36428
-16.4897,0,0,21.4897,21.4897,5,5,25.3688,-0.649868,-19.4884,-0.0723177,-0.195963,0.0940197,0,0,7.2975,0.1925,-0.2275,-0.124318,-0.611586,-0.823622,-0.04718,0.25102,0.36428
-16.6514,0,0,21.6514,21.6514,5,5,25.6176,-0.794707,-19.3819,-0.06979,-0.192058,0.0921222,0,0,7.2625,0.385,0.56,-0.124318,-0.611586,-0.823622,-0.05348,0.25872,0.3682
-16.7234,0,0,21.7234,21.7234,5,5,25.7283,-0.601427,-19.4712,0.14539,-0.124716,0.0235774,0,0,7.1575,0.2625,0.805,0.09516,-0.546072,-0.890844,-0.05348,0.25872,0.3682
-16.7947,0,0,21.7947,21.7947,5,5,25.838,-0.413312,-19.5587,0.142107,-0.12298,0.0227707,0,0,7.455,0.1575,1.0325,0.09516,-0.546072,-0.890844,-0.05348,0.25872,0.3682
-16.7989,0,0,21.7989,21.7989,5,5,25.8445,-0.414213,-19.5563,-0.0736363,0.313237,0.20198,1,0,7.245,0.035,1.2425,-0.121512,-0.11041,-0.712968,-0.05348,0.25872,0.3682
-16.8021,0,0,21.8021,21.8021,5,5,25.8494,-0.4153,-19.5539,-0.0736173,0.313313,0.201943,1,0,6.335,-0.035,1.3475,-0.121512,-0.11041,-0.712968,-0.05348,0.25872,0.3682
-16.8054,0,0,21.8054,21.8054,5,5,25.8544,-0.416744,-19.5522,-0.181471,-0.10306,-0.359355,1,0,6.405,-0.4375,0.9975,-0.229848,-0.52643,-1.2699,-0.05348,0.25872,0.3682
-16.8095,0,0,21.8095,21.8095,5,5,25.8608,-0.4173,-19.5513,-0.181462,-0.102959,-0.359404,1,0,7.21,-0.1575,0.385,-0.229848,-0.52643,-1.2699,-0.05348,0.25872,0.3682
-16.7334,0,0,21.7334,21.7334,5,5,25.7437,-0.574379,-19.5014,-0.118949,0.122346,-0.0526398,0,0,7.5775,0.0875,0.1925,-0.169824,-0.29951,-0.966362,-0.05348,0.25872,0.3682
-16.6571,0,0,21.6571,21.6571,5,5,25.6263,-0.72618,-19.4633,-0.1163,0.120485,-0.0517786,0,0,6.7725,-0.21,-0.2275,-0.169824,-0.29951,-0.966362,-0.0504,0.2632,0.364
-16.6612,0,0,21.6612,21.6612,5,5,25.6327,-0.727016,-19.4645,0.199334,0.0423033,-0.169858,1,0,7.1925,-0.8225,-0.6125,0.147132,-0.377712,-1.08348,-0.0504,0.2632,0.364
-16.6648,0,0,21.6648,21.6648,5,5,25.6381,-0.727142,-19.4664,0.199337,0.0423889,-0.169899,1,0,6.6325,-0.6475,-1.2075,0.147132,-0.377712,-1.08348,-0.0504,0.2632,0.364
-16.4899,0,0,21.4899,21.4899,5,5,25.369,-0.440862,-19.6807,0.147447,0.230766,0.00503457,0,0,6.3875,-0.6125,-1.2775,0.10004,-0.185318,-0.91195,-0.0504,0.2632,0.364
-16.3195,0,0,21.3195,21.3195,5,5,25.1069,-0.162462,-19.8949,0.142588,0.226639,0.00700853,0,0,7.3325,-0.455,-1.0675,0.10004,-0.185318,-0.91195,-0.0504,0.2632,0.364
-16.3239,0,0,21.3239,21.3239,5,5,25.1137,-0.161805,-19.8963,0.335253,0.0569907,-0.163203,1,0,7.4375,-0.105,-1.155,0.293532,-0.354898,-1.0808,-0.0504,0.2632,0.364
-16.3289,0,0,21.3289,21.3289,5,5,25.1214,-0.161021,-19.8969,0.335239,0.0571124,-0.16326,1,0,7.91,0.175,-0.735,0.293532,-0.354898,-1.0808,-0.0504,0.2632,0.364
-16.2714,0,0,21.2714,21.2714,5,5,25.0329,-0.391262,-19.8189,-0.159806,0.12092,0.00102195,0,0,7.56,-0.385,-0.315,-0.207644,-0.28975,-0.918416,-0.0504,0.2632,0.364
-16.2139,0,0,21.2139,21.2139,5,5,24.9445,-0.617089,-19.7292,-0.155864,0.119507,0.00164209,0,0,6.7375,0.385,0.1575,-0.207644,-0.28975,-0.918416,-0.05474,0.26054,0.3731
-16.2179,0,0,21.2179,21.2179,5,5,24.9507,-0.617434,-19.7284,0.194992,0.0807686,0.296427,1,0,7.0525,-0.0875,0.2625,0.144692,-0.328546,-0.62586,-0.05474,0.26054,0.3731
-16.2214,0,0,21.2214,21.2214,5,5,24.956,-0.617588,-19.7265,0.194995,0.0808525,0.296388,1,0,6.58,0.2975,0.8225,0.144692,-0.328546,-0.62586,-0.05474,0.26054,0.3731
-16.2254,0,0,21.2254,21.2254,5,5,24.9621,-0.618223,-19.725,0.12503,-0.50306,-0.134715,1,0,7.0525,-0.07,0.7,0.07442,-0.91195,-1.05359,-0.05474,0.26054,0.3731
-16.2302,0,0,21.2302,21.2302,5,5,24.9695,-0.619168,-19.7237,0.125047,-0.502943,-0.134769,1,0,7.7525,-0.2625,0.7175,0.07442,-0.91195,-1.05359,-0.05474,0.26054,0.3731
-16.2351,0,0,21.2351,21.2351,5,5,24.9771,-0.619813,-19.7226,-0.040284,0.0386862,0.296724,1,0,7.84,-0.175,0.49,-0.091622,-0.371002,-0.625372,-0.05474,0.26054,0.3731
-16.2408,0,0,21.2408,21.2408,5,5,24.9858,-0.620433,-19.7221,-0.0402732,0.0388246,0.296659,1,0,8.505,-0.2975,0.1925,-0.091622,-0.371002,-0.625372,-0.05474,0.26054,0.3731
-16.2463,0,0,21.2463,21.2463,5,5,24.9944,-0.620796,-19.722,-0.0740399,0.203097,-0.419332,1,0,8.365,-0.2625,-0.0875,-0.125538,-0.207034,-1.33578,-0.05474,0.26054,0.3731
-16.2508,0,0,21.2508,21.2508,5,5,25.0013,-0.620934,-19.7231,-0.0740375,0.203207,-0.419384,1,0,7.4725,-0.42,-0.735,-0.125538,-0.207034,-1.33578,-0.05474,0.26054,0.3731
-16.256,0,0,21.256,21.256,5,5,25.0092,-0.621186,-19.7244,0.0708993,-0.0630261,-0.228134,1,0,8.0325,-0.56,-0.875,0.020008,-0.473116,-1.14595,-0.05096,0.25648,0.36876
-16.2598,0,0,21.2598,21.2598,5,5,25.0151,-0.620842,-19.7265,0.0708933,-0.0629321,-0.228178,1,0,6.9125,-0.42,-1.4,0.020008,-0.473116,-1.14595,-0.05096,0.25648,0.36876
-16.2644,0,0,21.2644,21.2644,5,5,25.0221,-0.619707,-19.728,-0.052313,-0.0460905,-0.128764,1,0,7.49,0.14,-1.295,-0.1037,-0.456402,-1.04725,-0.05096,0.25648,0.36876
-16.2705,0,0,21.2705,21.2705,5,5,25.0315,-0.618583,-19.7294,-0.122551,0.185855,0.075753,1,0,8.8725,0.1575,-1.2425,-0.174216,-0.224846,-0.84424,-0.05096,0.25648,0.36876
-16.3227,0,0,21.3227,21.3227,5,5,25.1119,-0.950757,-19.5516,-0.206775,-0.00330399,0.0646363,0,0,8.295,-0.07,-0.84,-0.264618,-0.415044,-0.85461,-0.05096,0.25648,0.36876
-16.3287,0,0,21.3287,21.3287,5,5,25.1211,-0.950977,-19.5522,-0.0314675,0.0307922,0.118174,1,0,8.7325,-0.3675,-0.5075,-0.088572,-0.381128,-0.801418,-0.05096,0.25648,0.36876
-16.3342,0,0,21.3342,21.3342,5,5,25.1295,-0.951243,-19.5514,0.0594084,0.0503435,0.167168,1,0,8.33,-0.035,0.2625,0.002684,-0.36173,-0.75274,-0.05096,0.25648,0.36876
-16.3393,0,0,21.3393,21.3393,5,5,25.1374,-0.951495,-19.55,-0.0918369,0.0514461,-0.139525,1,0,8.0675,0.1225,0.5775,-0.149206,-0.360754,-1.05701,-0.05096,0.25648,0.36876
-16.3445,0,0,21.3445,21.3445,5,5,25.1454,-0.951625,-19.5479,0.112747,0.125947,-0.166756,1,0,8.085,0.35,0.8925,0.056242,-0.286456,-1.08397,-0.05292,0.25718,0.36078
-16.3497,0,0,21.3497,21.3497,5,5,25.1533,-0.952275,-19.5458,0.0708461,-0.126974,-0.313492,1,0,8.05,0.105,1.085,0.014152,-0.53924,-1.22952,-0.05292,0.25718,0.36078
-16.3558,0,0,21.3558,21.3558,5,5,25.1627,-0.953498,-19.5436,0.0708674,-0.126826,-0.313562,1,0,8.89,-0.1925,1.2425,0.014152,-0.53924,-1.22952,-0.05292,0.25718,0.36078
-16.3608,0,0,21.3608,21.3608,5,5,25.1704,-0.955298,-19.542,-0.114853,-0.30501,-0.0372314,1,0,7.9275,-0.6475,1.0675,-0.172386,-0.71736,-0.95526,-0.05292,0.25718,0.36078
-16.3672,0,0,21.3672,21.3672,5,5,25.1804,-0.956438,-19.5407,-0.114833,-0.304853,-0.0373056,1,0,9.1875,-0.385,0.7175,-0.172386,-0.71736,-0.95526,-0.05292,0.25718,0.36078
-16.2537,0,0,21.2537,21.2537,5,5,25.0056,-1.20859,-19.4452,-0.194744,0.191483,-0.0772756,0,0,9.5025,-0.245,0.455,-0.257054,-0.218746,-0.99613,-0.05292,0.25718,0.36078
-16.1414,0,0,21.1414,21.1414,5,5,24.8329,-1.45521,-19.35,-0.190441,0.188707,-0.0760963,0,0,9.24,-0.455,0.0525,-0.257054,-0.218746,-0.99613,-0.05292,0.25718,0.36078
-16.0198,0,0,21.0198,21.0198,5,5,24.6458,-1.16617,-19.5394,0.17772,0.143045,-0.06774,0,0,10.01,-1.1375,-0.525,0.11773,-0.261446,-0.989298,-0.05292,0.25718,0.36078
-15.8997,0,0,20.8997,20.8997,5,5,24.4611,-0.884202,-19.731,0.172799,0.140151,-0.0663209,0,0,9.1525,-0.525,-0.7525,0.11773,-0.261446,-0.989298,-0.0504,0.25662,0.35672
-15.9394,0,0,20.9394,20.9394,5,5,24.5221,-0.655948,-19.8564,0.151201,-0.0315447,0.0945948,0,0,8.96,-0.4725,-0.77,0.10004,-0.433954,-0.829234,-0.0504,0.25662,0.35672
-15.9786,0,0,20.9786,20.9786,5,5,24.5824,-0.433733,-19.9809,0.147322,-0.0305724,0.0941912,0,0,8.8725,-0.7875,-1.085,0.10004,-0.433954,-0.829234,-0.0504,0.25662,0.35672
-15.9841,0,0,20.9841,20.9841,5,5,24.5909,-0.433699,-19.9821,0.0868219,-0.0522994,-0.15816,1,0,8.3125,-0.385,-0.91,0.039284,-0.455792,-1.07958,-0.0504,0.25662,0.35672
-15.9911,0,0,20.9911,20.9911,5,5,24.6017,-0.434255,-19.9831,0.0868317,-0.0521267,-0.158239,1,0,9.695,-0.6125,-0.5775,0.039284,-0.455792,-1.07958,-0.0504,0.25662,0.35672
-15.8447,0,0,20.8447,20.8447,5,5,24.3765,-0.646922,-19.928,-0.157409,0.253263,0.0117974,0,0,10.01,-0.945,-0.455,-0.209718,-0.147132,-0.912438,-0.0504,0.25662,0.35672
-15.7014,0,0,20.7014,20.7014,5,5,24.1561,-0.855289,-19.8706,-0.153773,0.249735,0.0133352,0,0,10.71,-0.595,0.42,-0.209718,-0.147132,-0.912438,-0.0504,0.25662,0.35672
-15.6986,0,0,20.6986,20.6986,5,5,24.1517,-0.635337,-20.0025,0.146103,0.00201395,0.0198049,0,0,11.55,0,0.665,0.095282,-0.394548,-0.906094,-0.0504,0.25662,0.35672
-15.694,0,0,20.694,20.694,5,5,24.1446,-0.422823,-20.1384,0.142394,0.0019136,0.0198874,0,0,9.3275,-0.1225,0.7875,0.095282,-0.394548,-0.906094,-0.04508,0.25956,0.3696
-15.7006,0,0,20.7006,20.7006,5,5,24.1548,-0.423896,-20.1361,0.451472,-0.347816,-0.243911,1,0,9.3625,-0.105,1.2775,0.40565,-0.744078,-1.16778,-0.04508,0.25956,0.3696
-15.7076,0,0,20.7076,20.7076,5,5,24.1655,-0.425886,-20.1345,0.451507,-0.347646,-0.243987,1,0,9.59,-0.7875,1.0675,0.40565,-0.744078,-1.16778,-0.04508,0.25956,0.3696
-15.8235,0,0,20.8235,20.8235,5,5,24.3439,-0.6874,-19.9836,-0.153787,-0.0966644,0.0931708,0,0,9.0125,-0.105,0.7525,-0.20679,-0.496174,-0.831918,-0.04508,0.25956,0.3696
-15.9393,0,0,20.9393,20.9393,5,5,24.522,-0.942014,-19.836,-0.149344,-0.0938603,0.0918275,0,0,11.27,-0.455,0.2625,-0.20679,-0.496174,-0.831918,-0.04508,0.25956,0.3696
-15.9834,0,0,20.9834,20.9834,5,5,24.5898,-1.28733,-19.6558,-0.224956,0.00486781,0.044755,0,0,11.165,-0.28,0,-0.288774,-0.398574,-0.878034,-0.04508,0.25956,0.3696
-16.0273,0,0,21.0273,21.0273,5,5,24.6574,-1.62389,-19.4779,-0.219084,0.005879,0.0441274,0,0,12.4775,-0.385,-0.49,-0.288774,-0.398574,-0.878034,-0.04508,0.25956,0.3696
-16.0371,0,0,21.0371,21.0371,5,5,24.6724,-1.6237,-19.4785,0.274631,-0.0266134,-0.0922086,1,0,11.9875,-0.1225,-0.56,0.207034,-0.43127,-1.01321,-0.04508,0.25956,0.3696
-16.0448,0,0,21.0448,21.0448,5,5,24.6843,-1.62411,-19.4799,0.274638,-0.026425,-0.0922954,1,0,10.2375,-0.6475,-0.8575,0.207034,-0.43127,-1.01321,-0.04634,0.25704,0.36834
-16.0131,0,0,21.0131,21.0131,5,5,24.6355,-1.48662,-19.568,0.0813849,0.0746812,0.0705344,0,0,10.185,-0.7,-1.015,0.015372,-0.329522,-0.852048,-0.04634,0.25704,0.36834
-15.9821,0,0,20.9821,20.9821,5,5,24.5878,-1.35309,-19.6558,0.0790551,0.0739489,0.0709334,0,0,10.15,-0.945,-1.1375,0.015372,-0.329522,-0.852048,-0.04634,0.25704,0.36834
-16.002,0,0,21.002,21.002,5,5,24.6184,-1.2076,-19.7373,0.103,-0.0381425,-0.00300656,0,0,10.3775,-0.525,-0.6475,0.041968,-0.442006,-0.925248,-0.04634,0.25704,0.36834
-16.0234,0,0,21.0234,21.0234,5,5,24.6513,-1.06664,-19.8176,0.10054,-0.0375997,-0.00320176,0,0,11.795,-0.8925,-0.245,0.041968,-0.442006,-0.925248,-0.04634,0.25704,0.36834
-16.0328,0,0,21.0328,21.0328,5,5,24.6659,-1.068,-19.8177,-0.0381725,-0.177815,-0.0449875,1,0,11.7425,-0.8575,0.0175,-0.097356,-0.582306,-0.966606,-0.04634,0.25704,0.36834
-16.0433,0,0,21.0433,21.0433,5,5,24.6821,-1.06854,-19.8157,-0.038163,-0.177559,-0.0451055,1,0,12.6875,0.1225,0.9975,-0.097356,-0.582306,-0.966606,-0.04634,0.25704,0.36834
-16.1694,0,0,21.1694,21.1694,5,5,24.876,-1.19709,-19.7223,-0.0699358,-0.152277,0.0489665,0,0,12.3375,0.3325,1.085,-0.131516,-0.560102,-0.871812,-0.04634,0.25704,0.36834
-16.2908,0,0,21.2908,21.2908,5,5,25.0628,-1.32248,-19.6274,-0.0677478,-0.149344,0.0475475,0,0,10.5875,-0.07,1.365,-0.131516,-0.560102,-0.871812,-0.04816,0.25522,0.36442
-16.2996,0,0,21.2996,21.2996,5,5,25.0763,-1.32394,-19.625,0.160792,0.176827,0.357154,1,0,11.235,-0.2625,1.4175,0.097966,-0.234484,-0.564494,-0.04816,0.25522,0.36442
-16.3092,0,0,21.3092,21.3092,5,5,25.0911,-1.3264,-19.6235,0.160835,0.17706,0.357044,1,0,11.9,-1.0325,1.1725,0.097966,-0.234484,-0.564494,-0.04816,0.25522,0.36442
-16.3443,0,0,21.3443,21.3443,5,5,25.1451,-1.37905,-19.5894,-0.0329878,-0.0487641,-0.0274666,0,0,11.9,-0.5075,0.6475,-0.0976,-0.460916,-0.945622,-0.04816,0.25522,0.36442
-16.3786,0,0,21.3786,21.3786,5,5,25.1978,-1.43018,-19.5556,-0.0320956,-0.04794,-0.0278781,0,0,11.9,-0.5075,0.6475,-0.0976,-0.460916,-0.945622,-0.04816,0.25522,0.36442
-16.3896,0,0,21.3896,21.3896,5,5,25.2148,-1.43115,-19.5563,0.181858,-0.0772267,-0.197182,1,0,13.1075,-0.77,-0.3325,0.117242,-0.49044,-1.11349,-0.04816,0.25522,0.36442
-16.4011,0,0,21.4011,21.4011,5,5,25.2325,-1.43185,-19.557,0.18187,-0.0769484,-0.197313,1,0,13.475,-0.6475,-0.4375,0.117242,-0.49044,-1.11349,-0.04816,0.25522,0.36442
-16.4431,0,0,21.4431,21.4431,5,5,25.297,-1.61606,-19.4526,-0.113407,-0.00244557,0.0525746,0,0,12.635,-0.595,-0.8925,-0.182512,-0.416996,-0.86498,-0.04816,0.25522,0.36442
-16.4819,0,0,21.4819,21.4819,5,5,25.3568,-1.79556,-19.3496,-0.110275,-0.00154295,0.0520442,0,0,10.9375,-0.7525,-1.0675,-0.182512,-0.416996,-0.86498,-0.04816,0.25522,0.36442
-16.5314,0,0,21.5314,21.5314,5,5,25.4329,-2.16839,-19.134,-0.249919,-0.0110654,0.0216411,0,0,11.515,-0.945,-0.91,-0.329278,-0.42761,-0.894382,-0.04984,0.2513,0.36372
-16.3568,0,0,21.3568,21.3568,5,5,25.1644,-1.61989,-19.4545,0.319271,0.237149,0.0538053,0,0,12.145,-0.6825,-0.595,0.25193,-0.175558,-0.864736,-0.04984,0.2513,0.36372
-16.1889,0,0,21.1889,21.1889,5,5,24.9059,-1.08539,-19.7746,0.309945,0.233156,0.0559131,0,0,15.0325,-0.595,0.0875,0.25193,-0.175558,-0.864736,-0.04984,0.2513,0.36372
-16.2021,0,0,21.2021,21.2021,5,5,24.9264,-1.08656,-19.7742,0.205852,0.086683,-0.180053,1,0,15.05,-0.63,0.245,0.147376,-0.322202,-1.09873,-0.04984,0.2513,0.36372
-16.214,0,0,21.214,21.214,5,5,24.9446,-1.08674,-19.7728,0.205855,0.0869717,-0.180187,1,0,13.8425,0.1575,0.56,0.147376,-0.322202,-1.09873,-0.04984,0.2513,0.36372
-16.2254,0,0,21.2254,21.2254,5,5,24.9621,-1.08703,-19.7708,-0.151065,0.00749965,0.31406,1,0,13.4225,0.245,0.8925,-0.21106,-0.401868,-0.60817,-0.04984,0.2513,0.36372
-16.2335,0,0,21.2335,21.2335,5,5,24.9747,-1.08721,-19.7684,-0.151062,0.00769814,0.313968,1,0,10.6575,0.42,1.12,-0.21106,-0.401868,-0.60817,-0.04984,0.2513,0.36372
-16.1886,0,0,21.1886,21.1886,5,5,24.9055,-1.08393,-19.778,-0.00448578,0.0886742,0.0154664,0,0,11.2,-0.07,1.47,-0.063806,-0.319884,-0.904874,-0.04984,0.2513,0.36372
-16.147,0,0,21.147,21.147,5,5,24.8415,-1.08077,-19.7966,-0.00454095,0.0876607,0.0159375,0,0,13.4575,-0.455,1.4525,-0.063806,-0.319884,-0.904874,-0.05166,0.2569,0.36078
-16.1592,0,0,21.1592,21.1592,5,5,24.8604,-1.08258,-19.7945,0.539989,-0.155806,0.0949774,1,0,14.1925,-0.5425,1.3125,0.482998,-0.563396,-0.826306,-0.05166,0.2569,0.36078
-16.1746,0,0,21.1746,21.1746,5,5,24.884,-1.08433,-19.7936,0.54002,-0.155431,0.094803,1,0,16.8875,-0.805,0.6825,0.482998,-0.563396,-0.826306,-0.05166,0.2569,0.36078
-16.1886,0,0,21.1886,21.1886,5,5,24.9056,-1.08594,-19.7936,0.151901,-0.0234375,-0.0980161,1,0,15.68,-0.945,0.175,0.093208,-0.43188,-1.01748,-0.05166,0.2569,0.36078
-16.2018,0,0,21.2018,21.2018,5,5,24.9259,-1.08639,-19.7942,0.151909,-0.023116,-0.0981656,1,0,14.98,-0.4725,-0.42,0.093208,-0.43188,-1.01748,-0.05166,0.2569,0.36078
-16.1886,0,0,21.1886,21.1886,5,5,24.9056,-0.855086,-19.9279,0.162694,-0.0127837,-0.055537,0,0,13.895,-0.875,-0.455,0.108092,-0.421266,-0.97539,-0.05166,0.2569,0.36078
-16.1742,0,0,21.1742,21.1742,5,5,24.8833,-0.629505,-20.0611,0.158757,-0.013115,-0.055327,0,0,12.285,-0.91,-0.9275,0.108092,-0.421266,-0.97539,-0.05166,0.2569,0.36078
-16.1849,0,0,21.1849,21.1849,5,5,24.8998,-0.630841,-20.0628,0.0501723,0.0163346,0.112622,1,0,12.845,-1.225,-0.805,-0.000976,-0.392108,-0.808616,-0.05166,0.2569,0.36078
-16.1969,0,0,21.1969,21.1969,5,5,24.9183,-0.632613,-20.0639,0.0502032,0.0166265,0.112486,1,0,13.93,-1.295,-0.35,-0.000976,-0.392108,-0.808616,-0.04732,0.25508,0.36162
-16.2095,0,0,21.2095,21.2095,5,5,24.9377,-0.634937,-20.0646,0.161525,0.0689594,0.0934089,1,0,14.4725,-1.505,-0.035,0.110776,-0.340136,-0.827404,-0.04732,0.25508,0.36162
-16.2244,0,0,21.2244,21.2244,5,5,24.9607,-0.635934,-20.0642,0.161542,0.0693231,0.0932395,1,0,16.485,-0.525,0.2275,0.110776,-0.340136,-0.827404,-0.04732,0.25508,0.36162
-16.2008,0,0,21.2008,21.2008,5,5,24.9242,-0.82575,-19.9818,-0.128412,0.0918107,0.0257247,0,0,15.925,-0.2625,0.4375,-0.183732,-0.317078,-0.894626,-0.04732,0.25508,0.36162
-16.177,0,0,21.177,21.177,5,5,24.8878,-1.01098,-19.8991,-0.125179,0.0912114,0.0259459,0,0,15.8375,-0.0875,0.735,-0.183732,-0.317078,-0.894626,-0.04732,0.25508,0.36162
-16.1903,0,0,21.1903,21.1903,5,5,24.9081,-1.01177,-19.8974,-0.125287,-0.16994,-0.429359,1,0,15.0325,-0.105,0.84,-0.183854,-0.57828,-1.34627,-0.04732,0.25508,0.36162
-16.2023,0,0,21.2023,21.2023,5,5,24.9266,-1.01166,-19.8952,-0.125289,-0.169648,-0.429495,1,0,13.965,0.5075,0.91,-0.183854,-0.57828,-1.34627,-0.04732,0.25508,0.36162
-16.2157,0,0,21.2157,21.2157,5,5,24.9472,-1.01287,-19.8944,-0.135108,0.102533,0.171448,1,0,15.19,-0.525,0.525,-0.193736,-0.306708,-0.749812,-0.04732,0.25508,0.36162
-16.2296,0,0,21.2296,21.2296,5,5,24.9687,-1.0144,-19.8934,-0.135081,0.102872,0.171289,1,0,15.6275,-0.665,0.665,-0.193736,-0.306708,-0.749812,-0.04746,0.25802,0.36848
-16.3654,0,0,21.3654,21.3654,5,5,25.1776,-1.76236,-19.4729,-0.474582,-0.0149883,0.191589,0,0,16.275,-0.7,0.5775,-0.54778,-0.42761,-0.727852,-0.04746,0.25802,0.36848
-16.4987,0,0,21.4987,21.4987,5,5,25.3826,-2.4935,-19.058,-0.461831,-0.0119577,0.189634,0,0,17.815,-0.4725,-0.035,-0.54778,-0.42761,-0.727852,-0.04746,0.25802,0.36848
-16.3414,0,0,21.3414,21.3414,5,5,25.1406,-2.17845,-19.2569,0.196352,0.202685,-0.107005,0,0,16.625,-0.28,-0.455,0.118706,-0.209474,-1.02419,-0.04746,0.25802,0.36848
-16.1875,0,0,21.1875,21.1875,5,5,24.9039,-1.87188,-19.4571,0.191004,0.199023,-0.105087,0,0,16.87,-0.6475,-0.7525,0.118706,-0.209474,-1.02419,-0.04746,0.25802,0.36848
-16.2017,0,0,21.2017,21.2017,5,5,24.9257,-1.87215,-19.4586,0.29415,0.200956,-0.184303,1,0,15.8025,-0.6125,-0.9625,0.222284,-0.207888,-1.10264,-0.04746,0.25802,0.36848
-16.2155,0,0,21.2155,21.2155,5,5,24.947,-1.87291,-19.46,0.294164,0.201292,-0.18446,1,0,15.4875,-0.84,-0.77,0.222284,-0.207888,-1.10264,-0.04746,0.25802,0.36848
-15.8582,0,0,20.8582,20.8582,5,5,24.3972,-1.68074,-19.6544,0.0799121,0.546666,-0.142248,0,0,16.31,-1.19,-0.7,0.010492,0.14579,-1.06482,-0.04746,0.25802,0.36848
-15.5092,0,0,20.5092,20.5092,5,5,23.8603,-1.5039,-19.8338,0.0768269,0.538153,-0.138341,0,0,16.625,-1.0675,-0.2625,0.010492,0.14579,-1.06482,-0.0476,0.24416,0.36316
-15.6583,0,0,20.6583,20.6583,5,5,24.0897,-1.40246,-19.8377,0.0953452,-0.215113,0.0517506,0,0,18.27,-0.5775,0.07,0.030866,-0.610366,-0.874618,-0.0476,0.24416,0.36316
-15.8038,0,0,20.8038,20.8038,5,5,24.3135,-1.30237,-19.8403,0.0935987,-0.211535,0.0501877,0,0,17.2725,-0.07,0.3675,0.030866,-0.610366,-0.874618,-0.0476,0.24416,0.36316
-15.8149,0,0,20.8149,20.8149,5,5,24.3306,-1.12579,-19.9198,0.115179,0.0137208,0.0588537,0,0,17.01,0.4025,0.7175,0.055632,-0.385642,-0.865956,-0.0476,0.24416,0.36316
-15.826,0,0,20.826,20.826,5,5,24.3477,-0.95443,-19.9985,0.112189,0.0140149,0.0587802,0,0,16.94,0,0.9625,0.055632,-0.385642,-0.865956,-0.0476,0.24416,0.36316
-15.8408,0,0,20.8408,20.8408,5,5,24.3704,-0.954653,-19.9961,0.00504233,0.264736,0.309186,1,0,16.3625,0.3675,1.1025,-0.051972,-0.135542,-0.61732,-0.0476,0.24416,0.36316
-15.8574,0,0,20.8574,20.8574,5,5,24.396,-0.95721,-19.9949,0.00508694,0.265143,0.309,1,0,17.9725,-1.1725,1.015,-0.051972,-0.135542,-0.61732,-0.0476,0.24416,0.36316
-15.8746,0,0,20.8746,20.8746,5,5,24.4225,-0.960374,-19.9934,0.11861,0.0500095,-0.284295,1,0,18.445,-1.435,1.295,0.061976,-0.350872,-1.20585,-0.0476,0.24416,0.36316
-15.8937,0,0,20.8937,20.8937,5,5,24.4518,-0.96259,-19.9924,0.118648,0.0504749,-0.284507,1,0,20.0375,-1.0325,0.84,0.061976,-0.350872,-1.20585,-0.04844,0.25074,0.36582
-15.9136,0,0,20.9136,20.9136,5,5,24.4824,-0.964897,-19.9921,0.174329,-0.279026,-0.120593,1,0,20.755,-1.2425,0.5075,0.117852,-0.680516,-1.04298,-0.04844,0.25074,0.36582
-15.9318,0,0,20.9318,20.9318,5,5,24.5105,-0.965886,-19.9924,0.174346,-0.278579,-0.120797,1,0,19.3725,-0.6825,-0.1225,0.117852,-0.680516,-1.04298,-0.04844,0.25074,0.36582
-16.0811,0,0,21.0811,21.0811,5,5,24.7401,-1.23645,-19.8107,-0.171297,-0.159687,0.0588006,0,0,19.1625,-0.6475,-0.21,-0.233996,-0.565348,-0.863028,-0.04844,0.25074,0.36582
-16.2256,0,0,21.2256,21.2256,5,5,24.9624,-1.49967,-19.6324,-0.166704,-0.156213,0.0570708,0,0,17.99,-0.7,-0.385,-0.233996,-0.565348,-0.863028,-0.04844,0.25074,0.36582
-16.3729,0,0,21.3729,21.3729,5,5,25.1891,-1.44048,-19.6212,0.0601702,-0.138331,0.146646,0,0,17.6225,-0.455,-0.3325,-0.005124,-0.551074,-0.772504,-0.04844,0.25074,0.36582
-16.5194,0,0,21.5194,21.5194,5,5,25.4145,-1.38318,-19.6103,0.0591705,-0.134765,0.144988,0,0,19.0925,-1.1025,-0.2275,-0.005124,-0.551074,-0.772504,-0.04844,0.25074,0.36582
-16.5378,0,0,21.5378,21.5378,5,5,25.4428,-1.38518,-19.6105,0.113509,0.379956,0.183996,1,0,19.4425,-1.2075,0.1575,0.04941,-0.037332,-0.733586,-0.04844,0.25074,0.36582
-16.5594,0,0,21.5594,21.5594,5,5,25.476,-1.38749,-19.6101,0.11355,0.380478,0.183746,1,0,22.2075,-1.225,0.5425,0.04941,-0.037332,-0.733586,-0.04844,0.25074,0.36582
-16.3627,0,0,21.3627,21.3627,5,5,25.1734,-1.30211,-19.6975,0.0268986,0.301101,-0.107811,0,0,22.225,-0.385,0.77,-0.036112,-0.111874,-1.02517,-0.04844,0.24752,0.36722
-16.415,0,0,21.415,21.415,5,5,25.2538,-1.09521,-19.7816,0.153642,-0.0864482,-0.00752258,0,0,20.1775,0.595,0.91,0.094794,-0.500322,-0.925126,-0.04844,0.24752,0.36722
-16.4665,0,0,21.4665,21.4665,5,5,25.333,-0.894223,-19.8652,0.150135,-0.0851725,-0.00805808,0,0,20.0025,-0.0525,0.7,0.094794,-0.500322,-0.925126,-0.04844,0.24752,0.36722
-16.485,0,0,21.485,21.485,5,5,25.3615,-0.893634,-19.8629,0.0625336,0.400853,0.209102,1,0,19.6,0.7875,0.8225,0.006832,-0.01525,-0.70943,-0.04844,0.24752,0.36722
-16.5048,0,0,21.5048,21.5048,5,5,25.392,-0.895289,-19.8611,0.0625625,0.401334,0.208874,1,0,20.7025,-0.525,1.12,0.006832,-0.01525,-0.70943,-0.04844,0.24752,0.36722
-16.5256,0,0,21.5256,21.5256,5,5,25.4239,-0.897558,-19.86,0.212515,-0.0352554,-0.389633,1,0,21.49,-0.9975,0.9625,0.15738,-0.451888,-1.30308,-0.04844,0.24752,0.36722
-16.5483,0,0,21.5483,21.5483,5,5,25.4589,-0.899464,-19.8593,0.212549,-0.0347051,-0.389896,1,0,23.1875,-0.945,0.5775,0.15738,-0.451888,-1.30308,-0.04844,0.24752,0.36722
-16.5717,0,0,21.5717,21.5717,5,5,25.495,-0.900269,-19.8585,-0.0029529,-0.220624,-0.172671,1,0,23.8525,-0.315,0.4025,-0.059048,-0.638182,-1.08726,-0.04844,0.24752,0.36722
-16.5928,0,0,21.5928,21.5928,5,5,25.5274,-0.901458,-19.8582,-0.00293216,-0.220113,-0.172915,1,0,21.7875,-0.63,0.2625,-0.059048,-0.638182,-1.08726,-0.04816,0.24766,0.37352
-16.6139,0,0,21.6139,21.6139,5,5,25.5599,-0.902865,-19.8589,0.0636666,-0.109932,-0.124472,1,0,21.805,-1.0325,-0.28,0.007808,-0.528626,-1.03895,-0.04816,0.24766,0.37352
-16.6345,0,0,21.6345,21.6345,5,5,25.5916,-0.904545,-19.86,0.0636959,-0.109433,-0.124712,1,0,21.35,-1.26,-0.385,0.007808,-0.528626,-1.03895,-0.04816,0.24766,0.37352
-16.7733,0,0,21.7733,21.7733,5,5,25.8051,-0.812171,-19.8645,0.0782414,-0.113515,0.156722,0,0,21.3325,-1.26,-0.5425,0.024034,-0.536068,-0.758108,-0.04816,0.24766,0.37352
-16.9112,0,0,21.9112,21.9112,5,5,26.0173,-0.723187,-19.8685,0.0766885,-0.110176,0.155123,0,0,22.6275,-2.1,-0.035,0.024034,-0.536068,-0.758108,-0.04816,0.24766,0.37352
-16.9328,0,0,21.9328,21.9328,5,5,26.0505,-0.726538,-19.8691,-0.154805,-0.0349127,0.180318,1,0,22.2425,-2.0125,0.315,-0.208498,-0.461404,-0.732854,-0.04816,0.24766,0.37352
-16.957,0,0,21.957,21.957,5,5,26.0876,-0.72919,-19.8691,-0.154758,-0.0343313,0.180033,1,0,24.395,-1.4875,0.455,-0.208498,-0.461404,-0.732854,-0.04816,0.24766,0.37352
-16.8784,0,0,21.8784,21.8784,5,5,25.9668,-0.936124,-19.7773,-0.142886,0.189929,0.0225534,0,0,23.8175,-0.7175,0.7175,-0.200202,-0.23546,-0.88999,-0.04816,0.24766,0.37352
-16.8001,0,0,21.8001,21.8001,5,5,25.8462,-1.13957,-19.6787,-0.139336,0.188009,0.0234143,0,0,22.9075,-0.56,0.8925,-0.200202,-0.23546,-0.88999,-0.04858,0.24374,0.37296
-16.7437,0,0,21.7437,21.7437,5,5,25.7595,-1.35015,-19.5696,-0.144894,0.153149,0.00617388,0,0,23.9225,-1.225,0.665,-0.209474,-0.268888,-0.90768,-0.04858,0.24374,0.37296
-16.6883,0,0,21.6883,21.6883,5,5,25.6743,-1.55473,-19.4594,-0.141325,0.151771,0.00673701,0,0,24.325,-0.2625,1.0325,-0.209474,-0.268888,-0.90768,-0.04858,0.24374,0.37296
-16.7125,0,0,21.7125,21.7125,5,5,25.7115,-1.55619,-19.4577,0.388621,-0.231856,-0.322555,1,0,24.4475,-0.4375,1.015,0.32269,-0.6527,-1.23415,-0.04858,0.24374,0.37296
-16.7368,0,0,21.7368,21.7368,5,5,25.749,-1.55959,-19.4571,0.38868,-0.231268,-0.32284,1,0,24.6225,-1.7325,0.9625,0.32269,-0.6527,-1.23415,-0.04858,0.24374,0.37296
-16.8226,0,0,21.8226,21.8226,5,5,25.881,-1.44704,-19.475,0.0885909,-0.0944657,0.0450486,0,0,24.29,-1.6625,0.8225,0.023302,-0.518134,-0.868152,-0.04858,0.24374,0.37296
-16.9089,0,0,21.9089,21.9089,5,5,26.0136,-1.33577,-19.493,0.0866493,-0.092364,0.0440784,0,0,25.795,-1.12,0.2625,0.023302,-0.518134,-0.868152,-0.04858,0.24374,0.37296
-16.9336,0,0,21.9336,21.9336,5,5,26.0516,-1.33685,-19.4927,-0.0248556,0.298915,0.0894009,1,0,24.9025,-0.595,0.1925,-0.088694,-0.127856,-0.82289,-0.04858,0.24374,0.37296
-16.9586,0,0,21.9586,21.9586,5,5,26.0902,-1.33847,-19.4937,-0.0248274,0.299519,0.0891048,1,0,25.1825,-1.19,-0.315,-0.088694,-0.127856,-0.82289,-0.04256,0.24542,0.37506
-16.9852,0,0,21.9852,21.9852,5,5,26.1311,-1.33971,-19.4949,0.24635,0.108054,-0.154156,1,0,26.5125,-1.05,-0.525,0.18361,-0.319762,-1.06396,-0.04256,0.24542,0.37506
-17.0111,0,0,22.0111,22.0111,5,5,26.171,-1.34033,-19.4952,0.246361,0.108678,-0.154463,1,0,25.9525,-0.5075,-0.245,0.18361,-0.319762,-1.06396,-0.04256,0.24542,0.37506
-17.038,0,0,22.038,22.038,5,5,26.2123,-1.3428,-19.4957,0.0672128,0.0969902,0.25771,1,0,26.7575,-1.505,0.175,0.00366,-0.332084,-0.654652,-0.04256,0.24542,0.37506
-17.0639,0,0,22.0639,22.0639,5,5,26.2521,-1.34593,-19.4953,0.0672674,0.0976127,0.257402,1,0,25.9175,-1.645,0.77,0.00366,-0.332084,-0.654652,-0.04256,0.24542,0.37506
-17.0517,0,0,22.0517,22.0517,5,5,26.2334,-1.37523,-19.4718,-0.0269801,0.032588,-0.0790979,0,0,26.2675,-1.1725,0.7525,-0.0915,-0.396744,-0.988688,-0.04256,0.24542,0.37506
-17.0385,0,0,22.0385,22.0385,5,5,26.2131,-1.40305,-19.4472,-0.0264947,0.0322642,-0.0789515,0,0,25.1825,-0.455,1.1375,-0.0915,-0.396744,-0.988688,-0.04256,0.24542,0.37506
-17.062,0,0,22.062,22.062,5,5,26.2492,-1.40487,-19.4452,0.261094,0.194892,0.118593,1,0,23.8875,-0.525,1.295,0.197274,-0.23485,-0.79239,-0.04256,0.24542,0.37506
-17.0893,0,0,22.0893,22.0893,5,5,26.2913,-1.4081,-19.4439,0.26115,0.19555,0.118267,1,0,27.2125,-1.4525,1.295,0.197274,-0.23485,-0.79239,-0.0497,0.24598,0.37338
-17.117,0,0,22.117,22.117,5,5,26.3338,-1.41087,-19.4422,-0.00206116,-0.186286,-0.16546,1,0,27.475,-1.085,1.4175,-0.0671,-0.616954,-1.0736,-0.0497,0.24598,0.37338
-17.1469,0,0,22.1469,22.1469,5,5,26.3798,-1.41373,-19.4411,-0.0020112,-0.185569,-0.165816,1,0,29.365,-1.3125,1.085,-0.0671,-0.616954,-1.0736,-0.0497,0.24598,0.37338
-16.9091,0,0,21.9091,21.9091,5,5,26.0141,-0.975269,-19.7187,0.265503,0.354194,-0.0738414,0,0,29.6625,-1.645,1.1725,0.20923,-0.072102,-0.985272,-0.0497,0.24598,0.37338
-16.6749,0,0,21.6749,21.6749,5,5,25.6537,-0.547571,-19.9991,0.258039,0.348577,-0.0710119,0,0,29.2425,-1.925,1.12,0.20923,-0.072102,-0.985272,-0.0497,0.24598,0.37338
-16.7649,0,0,21.7649,21.7649,5,5,25.7922,-0.599999,-19.9425,-0.0225285,-0.0566646,0.0661251,0,0,29.54,-1.9425,1.015,-0.073444,-0.479094,-0.848144,-0.0497,0.24598,0.37338
-16.8532,0,0,21.8532,21.8532,5,5,25.928,-0.650723,-19.8867,-0.0216432,-0.0545364,0.0650828,0,0,29.54,-1.9425,1.015,-0.073444,-0.479094,-0.848144,-0.0497,0.24598,0.37338
-16.8814,0,0,21.8814,21.8814,5,5,25.9714,-0.652983,-19.8877,0.0599131,-0.115774,0.207494,1,0,27.9125,-1.5575,-0.21,0.008418,-0.540948,-0.706502,-0.0497,0.24598,0.37338
-16.9096,0,0,21.9096,21.9096,5,5,26.0148,-0.655242,-19.8888,0.0599526,-0.115094,0.207162,1,0,27.9125,-1.5575,-0.21,0.008418,-0.540948,-0.706502,-0.0497,0.24598,0.37338
-16.7608,0,0,21.7608,21.7608,5,5,25.7858,-0.85189,-19.8235,-0.153103,0.29347,-0.0208011,0,0,29.6975,-0.595,-0.315,-0.208986,-0.129198,-0.934398,-0.04466,0.24486,0.37856
-16.591,0,0,21.591,21.591,5,5,25.5245,-0.541849,-20.0305,0.191972,0.254094,-0.105201,0,0,30.87,-1.3125,0.2625,0.142984,-0.164456,-1.02016,-0.04466,0.24486,0.37856
-16.4235,0,0,21.4235,21.4235,5,5,25.2669,-0.239732,-20.2381,0.186699,0.250047,-0.103239,0,0,30.205,-1.3825,0.385,0.142984,-0.164456,-1.02016,-0.04466,0.24486,0.37856
-16.4556,0,0,21.4556,21.4556,5,5,25.3163,-0.241673,-20.2367,0.111655,-0.00722706,-0.220409,1,0,31.3075,-0.77,0.9975,0.067588,-0.422242,-1.13606,-0.04466,0.24486,0.37856
-16.4877,0,0,21.4877,21.4877,5,5,25.3657,-0.243616,-20.2353,0.111689,-0.00644754,-0.220778,1,0,31.3075,-0.77,0.9975,0.067588,-0.422242,-1.13606,-0.04466,0.24486,0.37856
-16.554,0,0,21.554,21.554,5,5,25.4677,-0.474241,-20.0924,-0.145359,-0.000576815,0.0614626,0,0,28.9975,-0.7875,1.4875,-0.19459,-0.417972,-0.85522,-0.04466,0.24486,0.37856
-16.6186,0,0,21.6186,21.6186,5,5,25.567,-0.699076,-19.951,-0.141435,0.000970333,0.0606795,0,0,28.9975,-0.7875,1.4875,-0.19459,-0.417972,-0.85522,-0.04466,0.24486,0.37856
-16.6513,0,0,21.6513,21.6513,5,5,25.6174,-0.700086,-19.9494,-0.0631802,0.117784,-0.247563,1,0,31.85,-0.2275,0.8575,-0.116022,-0.302072,-1.16071,-0.04452,0.23618,0.38514
-16.6857,0,0,21.6857,21.6857,5,5,25.6703,-0.897278,-19.8158,-0.136153,0.0199174,-0.0118226,0,0,33.3375,-1.1725,1.2425,-0.19276,-0.400648,-0.926346,-0.04452,0.23618,0.38514
-16.7191,0,0,21.7191,21.7191,5,5,25.7217,-1.08965,-19.6832,-0.132796,0.0207,-0.0122637,0,0,33.3375,-1.1725,1.2425,-0.19276,-0.400648,-0.926346,-0.04452,0.23618,0.38514
-16.7526,0,0,21.7526,21.7526,5,5,25.7733,-1.09394,-19.6828,-0.259431,0.0688957,0.177422,1,0,32.5325,-2.24,1.1025,-0.320006,-0.353312,-0.737734,-0.04452,0.23618,0.38514
-16.7862,0,0,21.7862,21.7862,5,5,25.8249,-1.09823,-19.6823,-0.259356,0.0697058,0.177029,1,0,32.5325,-2.24,1.1025,-0.320006,-0.353312,-0.737734,-0.04452,0.23618,0.38514
-16.8174,0,0,21.8174,21.8174,5,5,25.873,-1.10061,-19.6824,0.177183,-0.0640014,-0.293861,1,0,30.5375,-1.3475,0.3675,0.11834,-0.487634,-1.20463,-0.04452,0.23618,0.38514
-16.8487,0,0,21.8487,21.8487,5,5,25.921,-1.10298,-19.6824,0.177225,-0.0632474,-0.294228,1,0,30.5375,-1.3475,0.3675,0.11834,-0.487634,-1.20463,-0.04452,0.23618,0.38514
-16.8842,0,0,21.8842,21.8842,5,5,25.9757,-1.10613,-19.6826,0.230612,-0.0758239,-0.184608,1,0,34.2475,-1.82,0.4375,0.171898,-0.501054,-1.09544,-0.04452,0.23618,0.38514
-16.9197,0,0,21.9197,21.9197,5,5,26.0304,-1.10927,-19.6829,0.230667,-0.0749668,-0.185027,1,0,34.2475,-1.82,0.4375,0.171898,-0.501054,-1.09544,-0.04718,0.23366,0.3899
-16.9014,0,0,21.9014,21.9014,5,5,26.0021,-1.05506,-19.6875,0.0329139,0.0630891,-0.0485675,0,0,35.0175,-1.9775,0.665,-0.025742,-0.362706,-0.960262,-0.04718,0.23366,0.3899
-16.877,0,0,21.877,21.877,5,5,25.9646,-1.26255,-19.557,-0.145208,0.114616,-0.0151503,0,0,32.935,-1.435,0.5775,-0.208254,-0.310612,-0.927322,-0.04718,0.23366,0.3899
-16.8527,0,0,21.8527,21.8527,5,5,25.9272,-1.46457,-19.4257,-0.141683,0.113993,-0.0149403,0,0,33.005,-0.77,1.0325,-0.208254,-0.310612,-0.927322,-0.04718,0.23366,0.3899
-16.8868,0,0,21.8868,21.8868,5,5,25.9796,-1.46617,-19.4235,0.393854,0.401447,-0.248083,1,0,33.04,-0.3675,1.3475,0.329522,-0.024278,-1.15827,-0.04718,0.23366,0.3899
-16.9275,0,0,21.9275,21.9275,5,5,26.0423,-1.46857,-19.4217,0.393896,0.402429,-0.248563,1,0,38.745,-0.91,1.295,0.329522,-0.024278,-1.15827,-0.04718,0.23366,0.3899
-16.9681,0,0,21.9681,21.9681,5,5,26.1047,-1.46993,-19.4196,-0.241086,0.194815,-0.150315,1,0,38.64,-0.2625,1.2425,-0.308172,-0.232654,-1.0603,-0.04718,0.23366,0.3899
-17.0097,0,0,22.0097,22.0097,5,5,26.1687,-1.47195,-19.418,-0.241051,0.195817,-0.150808,1,0,39.4975,-0.735,1.1375,-0.308172,-0.232654,-1.0603,-0.04718,0.23366,0.3899
-17.0504,0,0,22.0504,22.0504,5,5,26.2313,-1.47404,-19.4155,0.151749,0.383162,0.1369,1,0,38.7275,-0.5425,1.6275,0.086254,-0.046482,-0.774334,-0.04858,0.23268,0.3892
-17.0885,0,0,22.0885,22.0885,5,5,26.29,-1.59681,-19.305,-0.0882304,-0.0154223,-0.0610591,0,0,35.3675,-2.0475,1.155,-0.156892,-0.445544,-0.970266,-0.04858,0.23268,0.3892
-17.1242,0,0,22.1242,22.1242,5,5,26.3449,-1.71516,-19.1948,-0.0861657,-0.0145895,-0.0615377,0,0,34.1075,-1.2075,1.12,-0.156892,-0.445544,-0.970266,-0.04858,0.23268,0.3892
-17.1526,0,0,22.1526,22.1526,5,5,26.3886,-1.69418,-19.158,0.0155163,0.0140645,0.0104277,0,0,33.6875,-1.1025,0.98,-0.054412,-0.417606,-0.89853,-0.04858,0.23268,0.3892
-17.1851,0,0,22.1851,22.1851,5,5,26.4387,-1.67484,-19.1231,0.0151789,0.0148516,0.0100478,0,0,37.6775,-2.1525,0.455,-0.054412,-0.417606,-0.89853,-0.04858,0.23268,0.3892
-17.2263,0,0,22.2263,22.2263,5,5,26.5021,-1.67775,-19.1232,0.0211824,0.288306,0.0316841,1,0,39.1475,-1.645,0.4725,-0.048434,-0.145424,-0.87657,-0.04858,0.23268,0.3892
-17.2704,0,0,22.2704,22.2704,5,5,26.5698,-1.68044,-19.1232,0.0212293,0.289362,0.031155,1,0,41.5625,-1.5225,0.4375,-0.048434,-0.145424,-0.87657,-0.04858,0.23268,0.3892
-17.3127,0,0,22.3127,22.3127,5,5,26.635,-1.68351,-19.1227,0.249919,0.30308,-0.181073,1,0,40.145,-1.5575,0.8575,0.18117,-0.132736,-1.08665,-0.04858,0.23268,0.3892
-17.3521,0,0,22.3521,22.3521,5,5,26.6955,-1.6873,-19.1221,0.249985,0.304023,-0.181549,1,0,37.5725,-1.9075,1.1025,0.18117,-0.132736,-1.08665,-0.0441,0.2303,0.38794
-17.0518,0,0,22.0518,22.0518,5,5,26.2335,-1.26416,-19.3982,0.234098,0.478372,0.0227427,0,0,37.415,-1.8375,1.4525,0.17263,0.048556,-0.887672,-0.0441,0.2303,0.38794
-16.7542,0,0,21.7542,21.7542,5,5,25.7756,-0.848971,-19.6775,0.226853,0.471249,0.026366,0,0,35.8575,-1.085,1.6975,0.17263,0.048556,-0.887672,-0.0441,0.2303,0.38794
-16.7938,0,0,21.7938,21.7938,5,5,25.8366,-0.852192,-19.6759,0.279513,0.202917,0.252373,1,0,37.7825,-1.3825,1.435,0.225456,-0.220454,-0.662948,-0.0441,0.2303,0.38794
-16.8378,0,0,21.8378,21.8378,5,5,25.9043,-0.85413,-19.6742,0.279547,0.20398,0.251857,1,0,41.5625,-0.665,1.19,0.225456,-0.220454,-0.662948,-0.0441,0.2303,0.38794
-16.8847,0,0,21.8847,21.8847,5,5,25.9765,-0.855453,-19.6722,0.0566434,-0.359357,-0.042418,1,0,44.0825,-0.2975,1.12,0.001586,-0.784338,-0.954406,-0.0441,0.2303,0.38794
-16.9327,0,0,21.9327,21.9327,5,5,26.0504,-0.85777,-19.6705,0.0566838,-0.358199,-0.0429839,1,0,45.0275,-0.8575,1.295,0.001586,-0.784338,-0.954406,-0.0441,0.2303,0.38794
-17.0552,0,0,22.0552,22.0552,5,5,26.2388,-0.703464,-19.6872,0.117528,-0.104871,0.0826057,0,0,42.9975,-1.1375,1.4,0.065392,-0.534238,-0.82838,-0.0441,0.2303,0.38794
-17.1746,0,0,22.1746,22.1746,5,5,26.4225,-0.553844,-19.706,0.114917,-0.101984,0.0812093,0,0,41.86,-1.8025,1.0675,0.065392,-0.534238,-0.82838,-0.04116,0.23072,0.39368
-17.2169,0,0,22.2169,22.2169,5,5,26.4875,-0.556762,-19.7052,-0.166879,0.368853,-0.322199,1,0,40.04,-1.435,0.91,-0.217648,-0.064904,-1.22817,-0.04116,0.23072,0.39368
-17.2594,0,0,22.2594,22.2594,5,5,26.5529,-0.560016,-19.7044,-0.166822,0.369873,-0.322709,1,0,40.25,-1.575,1.0675,-0.217648,-0.064904,-1.22817,-0.04116,0.23072,0.39368
-17.3041,0,0,22.3041,22.3041,5,5,26.6217,-0.564071,-19.7047,-0.0140441,0.193741,0.0331809,1,0,42.175,-2.2925,0.6825,-0.064294,-0.241926,-0.874496,-0.04116,0.23072,0.39368
-17.3517,0,0,22.3517,22.3517,5,5,26.6949,-0.566961,-19.7053,-0.0139936,0.194882,0.0326074,1,0,44.625,-1.7675,0.21,-0.064294,-0.241926,-0.874496,-0.04116,0.23072,0.39368
-17.402,0,0,22.402,22.402,5,5,26.7723,-0.56965,-19.7057,0.074009,0.0571087,0.116834,1,0,47.005,-1.61,0.2625,0.024034,-0.380762,-0.790316,-0.04116,0.23072,0.39368
-17.4523,0,0,22.4523,22.4523,5,5,26.8497,-0.572339,-19.7061,0.0740559,0.0583146,0.116224,1,0,47.005,-1.61,0.2625,0.024034,-0.380762,-0.790316,-0.04116,0.23072,0.39368
-17.6014,0,0,22.6014,22.6014,5,5,27.079,-0.532739,-19.6569,0.041171,-0.0861337,0.150685,0,0,43.645,-1.89,1.26,-0.008296,-0.528626,-0.754326,-0.04116,0.23072,0.39368
-17.7478,0,0,22.7478,22.7478,5,5,27.3043,-0.493568,-19.6081,0.0404874,-0.0826329,0.148893,0,0,43.645,-1.89,1.26,-0.008296,-0.528626,-0.754326,-0.04116,0.23072,0.39368
-17.7903,0,0,22.7903,22.7903,5,5,27.3698,-0.496159,-19.6059,0.0704181,0.408109,0.289637,1,0,40.285,-0.84,1.6275,0.021716,-0.039406,-0.614148,-0.04788,0.21784,0.3976
-17.8384,0,0,22.8384,22.8384,5,5,27.4437,-0.499768,-19.6038,0.128308,0.0298065,-0.413731,1,0,45.045,-1.4,1.8375,0.079788,-0.41846,-1.3115,-0.04788,0.21784,0.3976
-17.89,0,0,22.89,22.89,5,5,27.5231,-0.502698,-19.6016,0.128359,0.0310353,-0.414371,1,0,48.1075,-1.0325,1.68,0.079788,-0.41846,-1.3115,-0.04788,0.21784,0.3976
-17.9914,0,0,22.9914,22.9914,5,5,27.679,-0.637589,-19.4514,-0.08055,-0.0224969,0.0664278,0,0,51.31,-0.84,1.6275,-0.13237,-0.474336,-0.833138,-0.04788,0.21784,0.3976
-18.0907,0,0,23.0907,23.0907,5,5,27.8318,-0.768912,-19.3029,-0.0782582,-0.0201505,0.0651613,0,0,51.31,-0.84,1.6275,-0.13237,-0.474336,-0.833138,-0.04788,0.21784,0.3976
-18.1615,0,0,23.1615,23.1615,5,5,27.9408,-0.867941,-19.1785,-0.063531,-0.0254431,-0.00902696,0,0,47.565,-1.9075,1.9425,-0.119316,-0.48129,-0.90585,-0.04788,0.21784,0.3976
-18.2308,0,0,23.2308,23.2308,5,5,28.0474,-0.964353,-19.0553,-0.0618485,-0.0238118,-0.00992458,0,0,47.565,-1.9075,1.9425,-0.119316,-0.48129,-0.90585,-0.04788,0.21784,0.3976
-18.1134,0,0,23.1134,23.1134,5,5,27.8668,-0.701309,-19.1715,0.16572,0.210604,-0.0783451,0,0,44.625,-1.8375,2.0825,0.113826,-0.244366,-0.975268,-0.04788,0.21784,0.3976
-17.9984,0,0,22.9984,22.9984,5,5,27.6899,-0.445605,-19.2895,0.161257,0.207894,-0.0768671,0,0,44.625,-1.8375,2.0825,0.113826,-0.244366,-0.975268,-0.04508,0.21756,0.4025
-18.0524,0,0,23.0524,23.0524,5,5,27.7729,-0.450063,-19.2889,-0.321449,0.457704,-0.32516,1,0,50.12,-2.2225,1.33,-0.371002,0.003904,-1.22098,-0.04508,0.21756,0.4025
-18.1063,0,0,23.1063,23.1063,5,5,27.8559,-0.454523,-19.2882,-0.321371,0.458984,-0.325836,1,0,50.12,-2.2225,1.33,-0.371002,0.003904,-1.22098,-0.04508,0.21756,0.4025
-18.1661,0,0,23.1661,23.1661,5,5,27.9479,-0.458932,-19.2874,0.0791228,0.262803,-0.20364,1,0,55.2125,-2.17,1.365,0.03111,-0.193492,-1.09898,-0.04508,0.21756,0.4025
-18.2628,0,0,23.2628,23.2628,5,5,28.0966,-0.41277,-19.2343,0.0424789,-0.107512,-0.0388735,0,0,49.6475,-2.345,1.5225,-0.00488,-0.565714,-0.934276,-0.04508,0.21756,0.4025
-18.3571,0,0,23.3571,23.3571,5,5,28.2418,-0.368149,-19.1823,0.0417001,-0.105276,-0.0400645,0,0,49.0175,-2.8525,1.4175,-0.00488,-0.565714,-0.934276,-0.04508,0.21756,0.4025
-18.4053,0,0,23.4053,23.4053,5,5,28.3158,-0.372835,-19.1814,0.00946669,0.29424,0.0137887,1,0,45.1325,-2.275,1.505,-0.037332,-0.16775,-0.88023,-0.04508,0.21756,0.4025
-18.4603,0,0,23.4603,23.4603,5,5,28.4005,-0.377172,-19.181,0.00954239,0.29554,0.0130864,1,0,51.065,-2.2225,1.1725,-0.037332,-0.16775,-0.88023,-0.04508,0.21756,0.4025
-18.5165,0,0,23.5165,23.5165,5,5,28.4869,-0.381266,-19.18,-0.0823508,0.620867,-0.42914,1,0,52.01,-1.9075,1.4525,-0.129686,0.155916,-1.31833,-0.0399,0.21476,0.40306
-18.5802,0,0,23.5802,23.5802,5,5,28.5849,-0.384792,-19.1788,-0.114726,-0.312265,-0.160578,1,0,58.59,-1.575,1.365,-0.16226,-0.77775,-1.05103,-0.0399,0.21476,0.40306
-18.6425,0,0,23.6425,23.6425,5,5,28.6807,-0.389154,-19.1775,-0.11465,-0.310799,-0.161379,1,0,57.295,-1.96,1.68,-0.16226,-0.77775,-1.05103,-0.0399,0.21476,0.40306
-18.7029,0,0,23.7029,23.7029,5,5,28.7737,-0.393407,-19.1763,0.0132273,-0.326474,0.0400907,1,0,55.72,-1.9425,1.575,-0.033916,-0.79483,-0.85034,-0.0399,0.21476,0.40306
-18.7595,0,0,23.7595,23.7595,5,5,28.8608,-0.398737,-19.1759,0.0133204,-0.325142,0.0393574,1,0,52.43,-2.73,1.4525,-0.033916,-0.79483,-0.85034,-0.0399,0.21476,0.40306
-18.565,0,0,23.565,23.565,5,5,28.5616,-0.595673,-19.0956,-0.145669,0.404368,-0.0394293,0,0,48.615,-2.0475,1.4525,-0.19703,-0.061488,-0.930982,-0.0399,0.21476,0.40306
-18.3788,0,0,23.3788,23.3788,5,5,28.2751,-0.789744,-19.0148,-0.142282,0.399951,-0.0370861,0,0,53.3225,-2.66,1.26,-0.19703,-0.061488,-0.930982,-0.0399,0.21476,0.40306
-18.4376,0,0,23.4376,23.4376,5,5,28.3655,-0.795435,-19.0147,-0.0253135,0.632891,-0.223611,1,0,54.25,-3.01,1.3825,-0.079666,0.169824,-1.11532,-0.0399,0.21476,0.40306
-18.5052,0,0,23.5052,23.5052,5,5,28.4696,-0.80038,-19.0146,-0.0252272,0.634488,-0.224476,1,0,61.95,-2.6075,1.2075,-0.079666,0.169824,-1.11532,-0.0434,0.21112,0.40978
-18.5755,0,0,23.5755,23.5755,5,5,28.5777,-0.805071,-19.0141,0.158177,0.147517,-0.282795,1,0,64.2425,-2.3625,1.3475,0.104432,-0.318298,-1.1723,-0.0434,0.21112,0.40978
-18.6402,0,0,23.6402,23.6402,5,5,28.6772,-0.809491,-19.013,0.158254,0.14904,-0.283628,1,0,59.3775,-2.065,1.5575,0.104432,-0.318298,-1.1723,-0.0434,0.21112,0.40978
-18.704,0,0,23.704,23.704,5,5,28.7754,-0.815107,-19.0122,0.418088,-0.0269077,-0.0374495,1,0,58.66,-2.7475,1.7675,0.365268,-0.495564,-0.9272,-0.0434,0.21112,0.40978
-18.7597,0,0,23.7597,23.7597,5,5,28.861,-0.820935,-19.0121,0.41819,-0.025599,-0.0381711,1,0,51.6075,-3.0625,1.4525,0.365268,-0.495564,-0.9272,-0.0434,0.21112,0.40978
-18.8841,0,0,23.8841,23.8841,5,5,29.0524,-0.30645,-19.1748,0.366569,-0.118381,0.134507,0,0,51.905,-2.5375,1.68,0.322446,-0.591212,-0.754326,-0.0434,0.21112,0.40978
-19.0136,0,0,24.0136,24.0136,5,5,29.2517,0.196083,-19.334,0.357799,-0.115339,0.13282,0,0,57.47,-2.555,1.4,0.322446,-0.591212,-0.754326,-0.0434,0.21112,0.40978
-19.0796,0,0,24.0796,24.0796,5,5,29.3532,0.192604,-19.3325,-0.121645,-0.193788,-0.00697831,1,0,60.48,-1.435,1.54,-0.159088,-0.671122,-0.892186,-0.0434,0.21112,0.40978
-19.1553,0,0,24.1553,24.1553,5,5,29.4698,0.188107,-19.3307,-0.121566,-0.192015,-0.00797724,1,0,68.95,-1.89,1.9425,-0.159088,-0.671122,-0.892186,-0.0434,0.21,0.40782
-18.9239,0,0,23.9239,23.9239,5,5,29.1137,0.77471,-19.6632,0.369567,0.426225,-0.0552981,0,0,67.2875,-2.065,2.135,0.344406,-0.048068,-0.942084,-0.0434,0.21,0.40782
-18.6923,0,0,23.6923,23.6923,5,5,28.7574,1.34794,-19.9998,0.359564,0.420693,-0.0524519,0,0,64.3475,-2.695,2.3275,0.344406,-0.048068,-0.942084,-0.0434,0.21,0.40782
-18.7578,0,0,23.7578,23.7578,5,5,28.8582,1.3424,-19.9986,-0.0289716,1.43467,-0.734063,1,0,60.0775,-2.59,1.96,-0.045872,0.963312,-1.6176,-0.0434,0.21,0.40782
-18.8233,0,0,23.8233,23.8233,5,5,28.959,1.33686,-19.9973,-0.0288749,1.43621,-0.734911,1,0,60.0775,-2.59,1.96,-0.045872,0.963312,-1.6176,-0.0434,0.21,0.40782
-18.8878,0,0,23.8878,23.8878,5,5,29.0581,1.33159,-19.996,-0.101553,0.265915,-0.548621,1,0,59.185,-2.3975,1.9775,-0.11895,-0.207278,-1.43191,-0.0434,0.21,0.40782
-18.9523,0,0,23.9523,23.9523,5,5,29.1573,1.32631,-19.9946,-0.101461,0.267428,-0.549461,1,0,59.185,-2.3975,1.9775,-0.11895,-0.207278,-1.43191,-0.0434,0.21,0.40782
-19.0302,0,0,24.0302,24.0302,5,5,29.2772,1.31919,-19.9928,0.259476,-0.403419,-0.079464,1,0,70.805,-3.22,2.7125,0.24339,-0.879254,-0.964532,-0.0434,0.21,0.40782
-19.1082,0,0,24.1082,24.1082,5,5,29.3972,1.31207,-19.991,0.2596,-0.401593,-0.0804867,1,0,70.805,-3.22,2.7125,0.24339,-0.879254,-0.964532,-0.04466,0.2037,0.41118
-19.1845,0,0,24.1845,24.1845,5,5,29.5147,1.30626,-19.9883,-0.0617497,-0.899427,-0.0787881,1,0,69.44,-2.275,2.8175,-0.079422,-1.37836,-0.961848,-0.04466,0.2037,0.41118
-19.2609,0,0,24.2609,24.2609,5,5,29.6322,1.30045,-19.9856,-0.0616482,-0.897643,-0.079798,1,0,69.44,-2.275,2.8175,-0.079422,-1.37836,-0.961848,-0.04466,0.2037,0.41118
-19.3247,0,0,24.3247,24.3247,5,5,29.7303,1.29478,-19.9824,-0.487843,0.208727,-0.220436,1,0,58.5725,-2.0475,3.045,-0.50752,-0.274622,-1.10056,-0.04466,0.2037,0.41118
-19.3885,0,0,24.3885,24.3885,5,5,29.8284,1.2891,-19.9792,-0.487743,0.210214,-0.221285,1,0,58.5725,-2.0475,3.045,-0.50752,-0.274622,-1.10056,-0.04466,0.2037,0.41118
-19.4585,0,0,24.4585,24.4585,5,5,29.9362,1.28437,-19.9768,-0.0747311,0.851301,-0.421151,1,0,63.98,-1.8025,2.345,-0.092842,0.36417,-1.29796,-0.04466,0.2037,0.41118
-19.5286,0,0,24.5286,24.5286,5,5,30.044,1.27964,-19.9744,-0.0746485,0.85293,-0.422089,1,0,63.98,-1.8025,2.345,-0.092842,0.36417,-1.29796,-0.04466,0.2037,0.41118
-19.6155,0,0,24.6155,24.6155,5,5,30.1777,1.27221,-19.9728,0.231625,0.591157,-0.323177,1,0,78.5575,-3.36,2.8,0.214598,0.10065,-1.19865,-0.04466,0.2037,0.41118
-19.7024,0,0,24.7024,24.7024,5,5,30.3114,1.26478,-19.9711,0.231755,0.593174,-0.32435,1,0,78.5575,-3.36,2.8,0.214598,0.10065,-1.19865,-0.04662,0.20272,0.42812
-19.786,0,0,24.786,24.786,5,5,30.44,1.25825,-19.971,0.129213,0.117717,0.0827067,1,0,75.67,-3.36,1.7675,0.111508,-0.376248,-0.79361,-0.04662,0.20272,0.42812
-19.9906,0,0,24.9906,24.9906,5,5,30.7547,1.22681,-19.8219,-0.00192862,-0.21694,0.0681185,0,0,61.5475,-2.765,1.54,-0.02074,-0.715286,-0.805322,-0.04662,0.20272,0.42812
-20.1927,0,0,25.1927,25.1927,5,5,31.0657,1.19675,-19.6742,-0.00140412,-0.212279,0.0653411,0,0,62.5275,-2.5375,1.89,-0.02074,-0.715286,-0.805322,-0.04662,0.20272,0.42812
-19.7644,0,0,24.7644,24.7644,5,5,30.4068,0.87969,-19.6657,-0.286101,0.980716,-0.0480796,0,0,68.0925,-2.0825,1.7325,-0.312198,0.486292,-0.923784,-0.04662,0.20272,0.42812
-19.3447,0,0,24.3447,24.3447,5,5,29.7611,0.563166,-19.6519,-0.280577,0.971,-0.0423705,0,0,72.17,-3.0275,2.2225,-0.312198,0.486292,-0.923784,-0.04662,0.20272,0.42812
-19.439,0,0,24.439,24.439,5,5,29.9061,0.556046,-19.6504,0.0191313,0.784021,0.0185834,1,0,84.8925,-3.29,2.5725,-0.011346,0.297314,-0.862052,-0.04662,0.20272,0.42812
-19.5306,0,0,24.5306,24.5306,5,5,30.047,0.549162,-19.6501,0.0192515,0.786153,0.0173553,1,0,82.6175,-3.4825,1.96,-0.011346,0.297314,-0.862052,-0.04662,0.20272,0.42812
-19.6463,0,0,24.6463,24.6463,5,5,30.225,0.848342,-19.69,0.206949,-0.0516686,0.0636905,0,0,80.3775,-2.625,1.3125,0.18239,-0.54229,-0.814472,-0.042,0.1939,0.4228
-19.7192,0,0,24.7192,24.7192,5,5,30.3373,0.843235,-19.6903,-0.24914,-0.333433,-0.171267,1,0,66.5175,-2.7475,1.155,-0.27572,-0.825452,-1.04664,-0.042,0.1939,0.4228
-19.8003,0,0,24.8003,24.8003,5,5,30.462,0.836201,-19.6886,-0.249017,-0.331555,-0.172367,1,0,73.5,-3.15,2.695,-0.27572,-0.825452,-1.04664,-0.042,0.1939,0.4228
-19.8804,0,0,24.8804,24.8804,5,5,30.5852,0.830243,-19.6872,0.264728,0.983894,0.197355,1,0,72.695,-2.695,2.2225,0.240096,0.48678,-0.678686,-0.042,0.1939,0.4228
-19.9749,0,0,24.9749,24.9749,5,5,30.7306,0.82439,-19.6859,0.26483,0.986078,0.196062,1,0,85.1025,-2.6425,2.1875,0.240096,0.48678,-0.678686,-0.042,0.1939,0.4228
-20.0735,0,0,25.0735,25.0735,5,5,30.8824,0.818064,-19.6832,0.18804,0.720529,0.0527018,1,0,88.6375,-2.45,3.045,0.16287,0.219234,-0.819596,-0.042,0.1939,0.4228
-20.1707,0,0,25.1707,25.1707,5,5,31.0319,0.810264,-19.6811,0.188176,0.722768,0.0513612,1,0,87.4125,-3.3775,3.1675,0.16287,0.219234,-0.819596,-0.042,0.1939,0.4228
-20.2663,0,0,25.2663,25.2663,5,5,31.1789,0.804629,-19.6791,0.406463,0.750733,-0.272334,1,0,85.9775,-2.3275,2.45,0.381982,0.244976,-1.13948,-0.042,0.1939,0.4228
-20.3422,0,0,25.3422,25.3422,5,5,31.2956,0.797816,-19.679,0.406582,0.752476,-0.273389,1,0,69.055,-3.4825,1.8725,0.381982,0.244976,-1.13948,-0.04788,0.19082,0.43554
-20.4223,0,0,25.4223,25.4223,5,5,31.419,0.789168,-19.6784,0.0954864,-0.242361,0.467979,1,0,72.7475,-4.2175,2.73,0.069418,-0.750666,-0.402722,-0.04788,0.19082,0.43554
-20.5077,0,0,25.5077,25.5077,5,5,31.5503,0.781747,-19.6766,0.0956159,-0.240405,0.466783,1,0,77.2275,-3.255,2.9225,0.069418,-0.750666,-0.402722,-0.04788,0.19082,0.43554
-20.5996,0,0,25.5996,25.5996,5,5,31.6917,0.773523,-19.6761,0.0306431,-0.0902854,0.429713,1,0,82.845,-4.0425,2.5375,0.004026,-0.602802,-0.438224,-0.04788,0.19082,0.43554
-20.7061,0,0,25.7061,25.7061,5,5,31.8556,0.764265,-19.6736,0.0308046,-0.0878531,0.428209,1,0,95.445,-3.9375,3.85,0.004026,-0.602802,-0.438224,-0.04788,0.19082,0.43554
-21.0591,0,0,26.0591,26.0591,5,5,32.3986,0.144537,-19.2,-0.387467,-0.19397,0.26845,0,0,94.5525,-4.375,3.4475,-0.426878,-0.716872,-0.591822,-0.04788,0.19082,0.43554
-21.4009,0,0,26.4009,26.4009,5,5,32.9245,-0.457536,-18.7383,-0.376959,-0.186258,0.263472,0,0,91.455,-2.94,1.4875,-0.426878,-0.716872,-0.591822,-0.04788,0.19082,0.43554
-21.4918,0,0,26.4918,26.4918,5,5,33.0643,-0.463065,-18.7388,0.422392,2.12594,0.0725562,1,0,81.9525,-2.975,1.2775,0.37576,1.59088,-0.779946,-0.04788,0.19082,0.43554
-21.5837,0,0,26.5837,26.5837,5,5,33.2057,-0.470939,-18.736,0.422529,2.128,0.071206,1,0,82.8975,-3.045,3.675,0.37576,1.59088,-0.779946,-0.05068,0.17794,0.44114
-21.6789,0,0,26.6789,26.6789,5,5,33.3522,-0.478893,-18.7328,-0.409873,1.80895,-1.17567,1,0,85.7325,-2.9575,3.885,-0.460306,1.27002,-2.01581,-0.05068,0.17794,0.44114
-21.7784,0,0,26.7784,26.7784,5,5,33.5052,-0.48447,-18.7308,-0.409776,1.81117,-1.17714,1,0,89.3725,-2.1875,2.52,-0.460306,1.27002,-2.01581,-0.05068,0.17794,0.44114
-21.8875,0,0,26.8875,26.8875,5,5,33.6731,-0.49191,-18.7279,0.308213,-0.0776391,-0.673073,1,0,97.7725,-2.7825,3.5875,0.260592,-0.619272,-1.51402,-0.05068,0.17794,0.44114
-22.0004,0,0,27.0004,27.0004,5,5,33.8467,-0.501946,-18.7255,0.308388,-0.0751215,-0.674758,1,0,100.923,-4.1825,4.2175,0.260592,-0.619272,-1.51402,-0.05068,0.17794,0.44114
-22.1136,0,0,27.1136,27.1136,5,5,34.0209,-0.510818,-18.7232,0.0919339,-0.127068,0.28955,1,0,101.273,-3.675,3.745,0.043066,-0.673684,-0.555466,-0.05068,0.17794,0.44114
-22.2086,0,0,27.2086,27.2086,5,5,34.1671,-0.517587,-18.7222,0.0920521,-0.124956,0.288119,1,0,85.5575,-3.0275,2.5025,0.043066,-0.673684,-0.555466,-0.05068,0.17794,0.44114
-22.3005,0,0,27.3005,27.3005,5,5,34.3085,-0.530055,-18.7199,0.166862,-0.641345,0.267672,1,0,82.8975,-5.39,4.9525,0.117974,-1.19157,-0.574376,-0.05068,0.17794,0.44114
-22.398,0,0,27.398,27.398,5,5,34.4585,-0.539863,-18.7149,0.167033,-0.639186,0.266193,1,0,87.6925,-3.185,5.4075,0.117974,-1.19157,-0.574376,-0.04774,0.17206,0.44758
-22.4959,0,0,27.4959,27.4959,5,5,34.609,-0.547164,-18.7129,0.173113,-0.137646,-0.380285,1,0,88.0075,-2.94,3.1675,0.123952,-0.692716,-1.21439,-0.04774,0.17206,0.44758
-22.6113,0,0,27.6113,27.6113,5,5,34.7867,-0.556069,-18.7097,0.173269,-0.135098,-0.382052,1,0,103.215,-3.325,4.2525,0.123952,-0.692716,-1.21439,-0.04774,0.17206,0.44758
-22.7298,0,0,27.7298,27.7298,5,5,34.9689,-0.567777,-18.7074,-0.320609,0.655838,0.247223,1,0,105.77,-4.9525,4.7775,-0.372222,0.094794,-0.588162,-0.04774,0.17206,0.44758
-22.8482,0,0,27.8482,27.8482,5,5,35.1511,-0.579493,-18.7052,-0.320405,0.65844,0.245394,1,0,105.77,-4.9525,4.7775,-0.372222,0.094794,-0.588162,-0.04774,0.17206,0.44758
-22.9604,0,0,27.9604,27.9604,5,5,35.3237,-0.583585,-18.7054,0.281871,2.39217,-1.34804,1,0,100.38,-2.135,1.0325,0.232532,1.82427,-2.16757,-0.04774,0.17206,0.44758
-23.0726,0,0,28.0726,28.0726,5,5,35.4964,-0.587676,-18.7057,0.281943,2.39462,-1.34978,1,0,100.38,-2.135,1.0325,0.232532,1.82427,-2.16757,-0.04774,0.17206,0.44758
-23.1816,0,0,28.1816,28.1816,5,5,35.664,-0.603092,-18.7068,-0.616175,0.383376,-1.6055,1,0,97.545,-7.805,4.4975,-0.669658,-0.18727,-2.41963,-0.04774,0.17206,0.44758
-23.2905,0,0,28.2905,28.2905,5,5,35.8316,-0.618505,-18.7079,-0.615906,0.385748,-1.60721,1,0,97.545,-7.805,4.4975,-0.669658,-0.18727,-2.41963,-0.04774,0.17206,0.44758
-23.4127,0,0,28.4127,28.4127,5,5,36.0195,-0.6294,-18.7052,0.0801541,0.34053,-0.512804,1,0,109.008,-4.3225,4.795,0.029158,-0.235094,-1.33175,-0.0399,0.16114,0.46046
-23.7412,0,0,28.7412,28.7412,5,5,36.5249,-1.78159,-18.027,-0.76229,0.0531852,0.377072,0,0,114.223,-3.7275,3.1325,-0.837042,-0.528992,-0.443226,-0.0399,0.16114,0.46046
-23.8684,0,0,28.8684,28.8684,5,5,36.7206,-1.78639,-18.0271,0.206885,1.23481,-1.35215,1,0,113.33,-2.38,1.4,0.136152,0.648674,-2.15708,-0.0399,0.16114,0.46046
-23.9739,0,0,28.9739,28.9739,5,5,36.8829,-1.79875,-18.0291,0.207101,1.23708,-1.35385,1,0,94.535,-6.615,3.1325,0.136152,0.648674,-2.15708,-0.0399,0.16114,0.46046
-24.0882,0,0,29.0882,29.0882,5,5,37.0588,-1.81147,-18.028,-0.563625,-0.487471,-0.526781,1,0,102.235,-5.6525,4.76,-0.63806,-1.07653,-1.33456,-0.0399,0.16114,0.46046
-24.2045,0,0,29.2045,29.2045,5,5,37.2376,-1.82272,-18.0284,-0.563429,-0.484988,-0.528669,1,0,103.845,-5.46,3.5875,-0.63806,-1.07653,-1.33456,-0.0399,0.16114,0.46046
-24.3246,0,0,29.3246,29.3246,5,5,37.4225,-1.82852,-18.0271,-0.0109322,0.585451,0.0937047,1,0,107.275,-2.3625,2.3975,-0.083326,-0.00976,-0.715042,-0.0399,0.16114,0.46046
-24.4538,0,0,29.4538,29.4538,5,5,37.6213,-1.84052,-18.0249,-0.0107229,0.588197,0.0915874,1,0,115.08,-4.8825,5.0575,-0.083326,-0.00976,-0.715042,-0.03948,0.1554,0.4662
-24.5891,0,0,29.5891,29.5891,5,5,37.8294,-1.85373,-18.0242,-1.23203,-0.511741,0.366364,1,0,120.26,-5.95,4.83,-1.31004,-1.11142,-0.440176,-0.03948,0.1554,0.4662
-24.7171,0,0,29.7171,29.7171,5,5,38.0263,-1.85789,-18.0262,-1.23196,-0.509032,0.36425,1,0,113.995,-2.73,0.35,-1.31004,-1.11142,-0.440176,-0.03948,0.1554,0.4662
-24.7707,0,0,29.7707,29.7707,5,5,38.1087,-1.95521,-17.8126,-0.0575596,0.0871879,-0.0844593,0,0,105.718,-5.2325,-0.14,-0.13237,-0.516914,-0.8845,-0.03948,0.1554,0.4662
-24.8292,0,0,29.8292,29.8292,5,5,38.1987,-2.05314,-17.5916,-0.0558514,0.0883849,-0.0854757,0,0,111.108,-3.2725,5.145,-0.13237,-0.516914,-0.8845,-0.03948,0.1554,0.4662
-24.9556,0,0,29.9556,29.9556,5,5,38.3932,-2.06453,-17.5877,0.475847,0.723415,0.15733,1,0,112.7,-3.9375,5.6525,0.40138,0.114802,-0.641476,-0.03948,0.1554,0.4662
-25.0951,0,0,30.0951,30.0951,5,5,38.6079,-2.07304,-17.5843,0.475996,0.726342,0.154995,1,0,124.04,-2.73,4.445,0.40138,0.114802,-0.641476,-0.03948,0.1554,0.4662
-25.237,0,0,30.237,30.237,5,5,38.8261,-2.08561,-17.5817,1.12592,1.48515,-0.470373,1,0,126.018,-4.8825,5.5475,1.05384,0.86986,-1.25965,-0.03948,0.1554,0.4662
-25.3839,0,0,30.3839,30.3839,5,5,39.0522,-2.09683,-17.5795,1.12612,1.48821,-0.472856,1,0,130.358,-4.4275,4.8475,1.05384,0.86986,-1.25965,-0.03948,0.1554,0.4662
-25.5288,0,0,30.5288,30.5288,5,5,39.2751,-2.10458,-17.5801,1.09661,0.900741,-0.354335,1,0,128.59,-3.8325,2.3625,1.02407,0.27999,-1.1396,-0.04746,0.1463,0.48174
-25.1304,0,0,30.1304,30.1304,5,5,38.6621,-1.2211,-18.0272,0.641053,0.988333,-0.0241525,0,0,114.083,-6.195,4.7775,0.582062,0.375516,-0.818986,-0.04746,0.1463,0.48174
-24.7412,0,0,29.7412,29.7412,5,5,38.0635,-0.345719,-18.4855,0.625776,0.980271,-0.0175047,0,0,121.398,-5.7575,7.525,0.582062,0.375516,-0.818986,-0.04746,0.1463,0.48174
-24.8859,0,0,29.8859,29.8859,5,5,38.2861,-0.361065,-18.4849,0.603083,0.0816624,-0.260763,1,0,128.398,-6.93,5.6,0.559004,-0.52521,-1.05798,-0.04746,0.1463,0.48174
-25.0312,0,0,30.0312,30.0312,5,5,38.5095,-0.374816,-18.4813,0.603323,0.0847175,-0.263187,1,0,128.87,-5.11,6.3875,0.559004,-0.52521,-1.05798,-0.04746,0.1463,0.48174
-25.1812,0,0,30.1812,30.1812,5,5,38.7404,-0.390314,-18.4783,-0.132974,0.101665,0.0896179,1,0,133.053,-6.0725,6.8075,-0.180682,-0.511424,-0.705404,-0.04746,0.1463,0.48174
-25.3352,0,0,30.3352,30.3352,5,5,38.9772,-0.39841,-18.4786,-0.132833,0.104883,0.0870234,1,0,136.395,-3.92,2.5725,-0.180682,-0.511424,-0.705404,-0.04746,0.1463,0.48174
-25.478,0,0,30.478,30.478,5,5,39.1969,-0.405193,-18.481,0.303905,0.564612,0.202021,1,0,126.735,-4.0425,1.2075,0.257786,-0.055144,-0.588894,-0.04508,0.133,0.47978
-25.6194,0,0,30.6194,30.6194,5,5,39.4144,-0.421189,-18.4848,0.716628,0.786767,-1.05729,1,0,125.545,-8.7675,3.955,0.671976,0.163846,-1.8361,-0.04508,0.133,0.47978
-25.7695,0,0,30.7695,30.7695,5,5,39.6453,-0.435642,-18.4811,0.716881,0.789874,-1.05985,1,0,133.07,-5.215,6.8425,0.671976,0.163846,-1.8361,-0.04508,0.133,0.47978
-25.9305,0,0,30.9305,30.9305,5,5,39.8931,-0.445859,-18.478,-0.117062,-0.245614,-0.395257,1,0,142.503,-3.5525,4.9525,-0.165676,-0.873886,-1.17388,-0.04508,0.133,0.47978
-26.0901,0,0,31.0901,31.0901,5,5,40.1386,-0.460119,-18.4735,-0.116813,-0.242334,-0.398013,1,0,141.26,-4.7775,7.1575,-0.165676,-0.873886,-1.17388,-0.04508,0.133,0.47978
-26.256,0,0,31.256,31.256,5,5,40.3938,-0.475766,-18.4709,-0.895992,-0.659175,0.424337,1,0,146.685,-6.125,6.8075,-0.948428,-1.29369,-0.35502,-0.04508,0.133,0.47978
-26.4147,0,0,31.4147,31.4147,5,5,40.638,-0.48391,-18.4723,-0.89585,-0.655935,0.421566,1,0,140.525,-4.2525,2.24,-0.948428,-1.29369,-0.35502,-0.04508,0.133,0.47978
-26.5665,0,0,31.5665,31.5665,5,5,40.8716,-0.495457,-18.4734,-0.134055,-0.895147,-0.207765,1,0,134.54,-5.6175,3.71,-0.18361,-1.53574,-0.976854,-0.04508,0.133,0.47978
-26.7196,0,0,31.7196,31.7196,5,5,41.1071,-0.513584,-18.4693,-0.133738,-0.892046,-0.210463,1,0,135.66,-6.545,8.505,-0.18361,-1.53574,-0.976854,-0.03696,0.12194,0.48328
-26.8793,0,0,31.8793,31.8793,5,5,41.3527,-0.532687,-18.465,-0.359125,0.0436128,0.952016,1,0,141.312,-6.86,8.995,-0.410286,-0.604266,0.179462,-0.03696,0.12194,0.48328
-27.0541,0,0,32.0541,32.0541,5,5,41.6218,-0.546038,-18.4622,-0.358892,0.0471285,0.948904,1,0,154.438,-4.865,6.16,-0.410286,-0.604266,0.179462,-0.03696,0.12194,0.48328
-27.2205,0,0,32.2205,32.2205,5,5,41.8777,-0.559473,-18.46,-0.103538,2.54062,-0.280115,1,0,147.123,-5.0925,5.9675,-0.154086,1.88331,-1.03712,-0.03696,0.12194,0.48328
-27.396,0,0,32.396,32.396,5,5,42.1477,-0.570996,-18.4596,-0.103337,2.54412,-0.28327,1,0,154.963,-4.97,4.4275,-0.154086,1.88331,-1.03712,-0.03696,0.12194,0.48328
-27.5725,0,0,32.5725,32.5725,5,5,42.4193,-0.583318,-18.4676,0.683498,1.00859,-0.482195,1,0,155.803,-8.5575,1.19,0.635864,0.34587,-1.23135,-0.03696,0.12194,0.48328
-27.7342,0,0,32.7342,32.7342,5,5,42.6679,-0.596345,-18.4714,0.683726,1.01178,-0.48513,1,0,142.975,-7.2275,3.2725,0.635864,0.34587,-1.23135,-0.03696,0.12194,0.48328
-27.8947,0,0,32.8947,32.8947,5,5,42.9149,-0.615533,-18.4745,-0.633816,1.22476,0.693474,1,0,142.048,-9.59,6.0375,-0.687592,0.555466,-0.058926,-0.03696,0.12194,0.48328
-28.0804,0,0,33.0804,33.0804,5,5,43.2005,-0.625054,-18.4732,-0.63365,1.2284,0.690069,1,0,163.748,-3.64,4.13,-0.687592,0.555466,-0.058926,-0.03696,0.12194,0.48328
-28.2635,0,0,33.2635,33.2635,5,5,43.4823,-0.634892,-18.4693,-1.05528,0.731498,-0.188455,1,0,161.578,-2.73,5.355,-1.11118,0.05551,-0.927322,-0.0385,0.10738,0.49462
-28.447,0,0,33.447,33.447,5,5,43.7646,-0.647482,-18.4675,0.885555,-1.04982,-0.413163,1,0,161.875,-4.7075,5.6,0.837652,-1.72752,-1.14692,-0.0385,0.10738,0.49462
-28.6353,0,0,33.6353,33.6353,5,5,44.0543,-0.661638,-18.4739,0.885802,-1.04618,-0.416671,1,0,165.97,-8.645,2.835,0.837652,-1.72752,-1.14692,-0.0385,0.10738,0.49462
-28.8157,0,0,33.8157,33.8157,5,5,44.3319,-0.68073,-18.4729,0.982352,-0.525624,-0.38206,1,0,159.233,-7.7,7.9625,0.934276,-1.21097,-1.10922,-0.0385,0.10738,0.49462
-28.9914,0,0,33.9914,33.9914,5,5,44.6021,-0.701118,-18.4749,0.982708,-0.522261,-0.385367,1,0,155.103,-9.4325,7.28,0.934276,-1.21097,-1.10922,-0.0385,0.10738,0.49462
-29.5859,0,0,34.5859,34.5859,5,5,45.5168,-1.38503,-17.9104,-0.423824,-0.18494,0.618368,0,0,164.238,-7.63,5.215,-0.490196,-0.88511,-0.10187,-0.0385,0.10738,0.49462
-30.1856,0,0,35.1856,35.1856,5,5,46.4394,-2.05124,-17.3554,-0.412202,-0.174005,0.606552,0,0,176.733,-1.9775,6.1775,-0.490196,-0.88511,-0.10187,-0.0385,0.10738,0.49462
-30.377,0,0,35.377,35.377,5,5,46.7338,-2.063,-17.3562,0.105168,2.34508,-1.49186,1,0,168.63,-5.18,4.4275,0.029158,1.62785,-2.18038,-0.0357,0.09212,0.50246
-30.6071,0,0,35.6071,35.6071,5,5,47.0878,-3.55398,-16.7348,-0.814243,0.566662,0.337895,0,0,172.708,-5.67,0.735,-0.920246,-0.152012,-0.359412,-0.0357,0.09212,0.50246
-30.8333,0,0,35.8333,35.8333,5,5,47.4359,-5.03954,-16.1117,-0.788389,0.569346,0.332128,0,0,174.51,-6.7725,3.3075,-0.920246,-0.152012,-0.359412,-0.0357,0.09212,0.50246
-31.0208,0,0,36.0208,36.0208,5,5,47.7244,-5.06049,-16.1146,0.870498,1.77602,-1.03202,1,0,165.183,-9.66,7.63,0.745298,1.05005,-1.70934,-0.0357,0.09212,0.50246
-31.2083,0,0,36.2083,36.2083,5,5,48.0128,-5.08143,-16.1177,0.870862,1.77936,-1.03576,1,0,165.183,-9.66,7.63,0.745298,1.05005,-1.70934,-0.0357,0.09212,0.50246
-31.4168,0,0,36.4168,36.4168,5,5,48.3336,-5.09632,-16.1172,-0.686569,-1.32323,-0.928787,1,0,183.435,-5.6525,6.475,-0.818986,-2.05302,-1.59905,-0.0357,0.09212,0.50246
-31.6156,0,0,36.6156,36.6156,5,5,48.6394,-5.11011,-16.1165,0.418219,4.13336,-1.04491,1,0,175.07,-5.145,6.0725,0.290238,3.39441,-1.71032,-0.0357,0.09212,0.50246
-31.816,0,0,36.816,36.816,5,5,48.9477,-5.1329,-16.12,0.418615,4.13686,-1.04897,1,0,176.313,-10.4475,8.4175,0.290238,3.39441,-1.71032,-0.0357,0.09212,0.50246
-32.0397,0,0,37.0397,37.0397,5,5,49.2919,-5.16032,-16.1297,1.04535,-1.54377,-0.618403,1,0,196.053,-14.8925,8.1725,0.919148,-2.28421,-1.27856,-0.03738,0.08386,0.5103
-32.2456,0,0,37.2456,37.2456,5,5,49.6086,-5.18019,-16.1312,1.0457,-1.54021,-0.622607,1,0,181.108,-8.33,8.015,0.919148,-2.28421,-1.27856,-0.03738,0.08386,0.5103
-32.4559,0,0,37.4559,37.4559,5,5,49.9322,-5.20318,-16.1241,-0.0433885,0.233009,0.254371,1,0,185.343,-5.6,12.705,-0.174948,-0.516426,-0.404064,-0.03738,0.08386,0.5103
-32.6662,0,0,37.6662,37.6662,5,5,50.2557,-5.22621,-16.117,-0.0429882,0.236589,0.250034,1,0,185.343,-5.6,12.705,-0.174948,-0.516426,-0.404064,-0.03738,0.08386,0.5103
-32.8862,0,0,37.8862,37.8862,5,5,50.5942,-5.23519,-16.114,-0.133825,2.39586,1.04957,1,0,193.515,-2.0825,4.935,-0.266326,1.63687,0.393816,-0.03738,0.08386,0.5103
-33.1011,0,0,38.1011,38.1011,5,5,50.9248,-5.24709,-16.1142,1.06873,-2.06132,-0.999646,1,0,188.965,-4.6025,5.075,0.941108,-2.8193,-1.63517,-0.03738,0.08386,0.5103
-33.3336,0,0,38.3336,38.3336,5,5,51.2824,-5.26612,-16.1205,1.06906,-2.05744,-1.0045,1,0,203.77,-9.94,6.125,0.941108,-2.8193,-1.63517,-0.03738,0.08386,0.5103
-33.5624,0,0,38.5624,38.5624,5,5,51.6345,-5.28191,-16.1202,-0.560521,-0.395776,0.627633,1,0,200.97,-5.7225,7.0875,-0.695644,-1.16315,-0.010858,-0.03738,0.08386,0.5103
-33.7955,0,0,38.7955,38.7955,5,5,51.9931,-5.30802,-16.1267,-0.560067,-0.391956,0.622707,1,0,204.348,-12.53,9.415,-0.695644,-1.16315,-0.010858,-0.03024,0.05362,0.51842
-34.0324,0,0,39.0324,39.0324,5,5,52.3575,-5.32387,-16.1226,-1.25821,-0.716003,0.518716,1,0,208.11,-3.9025,8.54,-1.39702,-1.49072,-0.109068,-0.03024,0.05362,0.51842
-34.2583,0,0,39.2583,39.2583,5,5,52.7051,-5.33485,-16.1245,-1.25802,-0.712343,0.513911,1,0,198.363,-4.865,4.2,-1.39702,-1.49072,-0.109068,-0.03024,0.05362,0.51842
-34.4736,0,0,39.4736,39.4736,5,5,53.0363,-5.34083,-16.1205,0.984829,1.55108,1.03947,1,0,189.473,-0.35,3.955,0.85522,0.766892,0.416996,-0.03024,0.05362,0.51842
-34.7209,0,0,39.7209,39.7209,5,5,53.4167,-5.36941,-16.1287,0.985326,1.555,1.03415,1,0,216.475,-13.965,10.2725,0.85522,0.766892,0.416996,-0.03024,0.05362,0.51842
-34.9717,0,0,39.9717,39.9717,5,5,53.8026,-5.39438,-16.1348,0.967537,2.1178,0.965407,1,0,219.608,-11.6375,9.3975,0.83692,1.32516,0.354166,-0.03024,0.05362,0.51842
-35.2221,0,0,40.2221,40.2221,5,5,54.1878,-5.42555,-16.148,0.968078,2.12169,0.959963,1,0,218.855,-17.0625,9.975,0.83692,1.32516,0.354166,-0.03024,0.05362,0.51842
-35.4697,0,0,40.4697,40.4697,5,5,54.5688,-5.44856,-16.1445,-0.543533,-0.123694,0.268138,1,0,217.385,-6.2475,11.9,-0.681492,-0.92171,-0.32696,-0.03024,0.05362,0.51842
-35.7188,0,0,40.7188,40.7188,5,5,54.952,-5.46233,-16.1459,-0.543294,-0.119871,0.262687,1,0,218.365,-5.4425,5.845,-0.681492,-0.92171,-0.32696,-0.03416,0.0322,0.53704
-35.9523,0,0,40.9523,40.9523,5,5,55.3113,-5.47133,-16.1489,-0.699611,2.2422,1.78224,1,0,204.873,-4.5325,3.0975,-0.838628,1.43435,1.18596,-0.03416,0.0322,0.53704
-36.2121,0,0,41.2121,41.2121,5,5,55.711,-5.49912,-16.1663,-0.699128,2.24609,1.77649,1,0,226.748,-17.6925,7.4025,-0.838628,1.43435,1.18596,-0.03416,0.0322,0.53704
-36.4823,0,0,41.4823,41.4823,5,5,56.1266,-5.52005,-16.1789,-1.02908,1.49182,-0.825443,1,0,235.953,-13.02,5.81,-1.17035,0.676856,-1.38995,-0.03416,0.0322,0.53704
-36.755,0,0,41.755,41.755,5,5,56.5461,-5.54442,-16.1879,-1.02866,1.49583,-0.831531,1,0,238.298,-12.3725,8.715,-1.17035,0.676856,-1.38995,-0.03416,0.0322,0.53704
-37.0251,0,0,42.0251,42.0251,5,5,56.9618,-5.56272,-16.1891,0.0884753,0.235627,0.127436,1,0,236.548,-6.5975,8.295,-0.0488,-0.585966,-0.432368,-0.03416,0.0322,0.53704
-37.2942,0,0,42.2942,42.2942,5,5,57.3758,-5.57478,-16.1922,0.0886847,0.239508,0.121382,1,0,235.533,-5.4425,4.7075,-0.0488,-0.585966,-0.432368,-0.03416,0.0322,0.53704
-37.5599,0,0,42.5599,42.5599,5,5,57.7844,-5.58915,-16.1989,1.94524,4.08784,-0.461867,1,0,232.365,-7.8575,4.795,1.81536,3.25459,-1.00516,-0.03416,0.0322,0.53704
-37.8255,0,0,42.8255,42.8255,5,5,58.1931,-5.60347,-16.2056,1.94548,4.09159,-0.467899,1,1,232.365,-7.8575,4.795,1.81536,3.25459,-1.00516,-0.02982,0.01848,0.54362
-38.113,0,0,43.113,43.113,5,5,58.6354,-5.62925,-16.21,1.92601,2.23351,-1.71391,1,1,251.318,-10.22,11.235,1.79535,1.39446,-2.23504,-0.02982,0.01848,0.54362
-38.3934,0,0,43.3934,43.3934,5,5,59.0668,-5.65881,-16.2183,-0.766694,-0.228279,1.08275,1,1,244.965,-13.16,12.0575,-0.909266,-1.0686,0.546438,-0.02982,0.01848,0.54362
-38.6687,0,0,43.6687,43.6687,5,5,59.4902,-5.6784,-16.2178,-0.766354,-0.224551,1.07641,1,1,241.045,-5.74,9.73,-0.909266,-1.0686,0.546438,-0.02982,0.01848,0.54362
-38.9433,0,0,43.9433,43.9433,5,5,59.9128,-5.69156,-16.222,0.0740695,0.511404,0.423726,1,1,240.293,-6.055,5.1975,-0.065514,-0.337086,-0.094916,-0.02982,0.01848,0.54362
-39.2223,0,0,44.2223,44.2223,5,5,60.3421,-5.70439,-16.2221,0.0742924,0.515098,0.417251,1,1,244.23,-3.9375,6.2125,-0.065514,-0.337086,-0.094916,-0.02982,0.01848,0.54362
-39.5142,0,0,44.5142,44.5142,5,5,60.791,-5.73172,-16.2346,2.3887,0.461244,-1.58428,1,1,254.625,-14.2975,10.0975,2.25822,-0.39467,-2.07424,-0.02982,0.01848,0.54362
-39.8118,0,0,44.8118,44.8118,5,5,61.249,-5.76633,-16.2556,2.38931,0.465044,-1.59127,1,1,259.158,-20.6325,11.5325,2.25822,-0.39467,-2.07424,-0.02982,0.01848,0.54362
-40.116,0,0,45.116,45.116,5,5,61.7169,-5.79801,-16.2747,-1.01539,-0.998112,-0.231981,1,1,264.828,-18.725,10.7275,-1.16144,-1.86013,-0.718336,-0.02716,-0.00196,0.54866
-40.4066,0,0,45.4066,45.4066,5,5,62.164,-5.804,-16.2676,-1.2223,1.75961,0.0307887,1,1,254.678,1.9075,4.795,-1.36933,0.891088,-0.45079,-0.02716,-0.00196,0.54866
-40.707,0,0,45.707,45.707,5,5,62.6261,-5.81453,-16.2688,-1.22211,1.76331,0.0236693,1,1,262.623,-3.535,4.9175,-1.36933,0.891088,-0.45079,-0.02716,-0.00196,0.54866
-41.0101,0,0,46.0101,46.0101,5,5,63.0925,-5.84271,-16.2751,0.164893,-0.624035,-0.483223,1,1,264.723,-10.92,12.7225,0.023058,-1.49743,-0.946598,-0.02716,-0.00196,0.54866
-41.3133,0,0,46.3133,46.3133,5,5,63.5589,-5.87083,-16.2817,0.165381,-0.620445,-0.490481,1,1,264.723,-10.92,12.7225,0.023058,-1.49743,-0.946598,-0.02716,-0.00196,0.54866
-41.6389,0,0,46.6389,46.6389,5,5,64.0598,-5.90411,-16.2871,0.440638,1.23271,0.708428,1,1,284.113,-11.515,15.82,0.2989,0.350018,0.250832,-0.02716,-0.00196,0.54866
-41.9602,0,0,46.9602,46.9602,5,5,64.5541,-5.92562,-16.2779,-0.583356,1.00923,0.259295,1,1,281.225,-0.7525,13.3875,-0.729804,0.123098,-0.187148,-0.02716,-0.00196,0.54866
-42.2661,0,0,47.2661,47.2661,5,5,65.0247,-5.93359,-16.2832,-0.583217,1.0127,0.251896,1,1,267.155,-4.83,2.695,-0.729804,0.123098,-0.187148,-0.02716,-0.00196,0.54866
-42.5816,0,0,47.5816,47.5816,5,5,65.5101,-5.93759,-16.2875,2.63732,0.796515,0.567472,1,1,275.485,-3.36,0.84,2.50429,-0.09638,0.13359,-0.03612,-0.03836,0.54306
-42.9206,0,0,47.9206,47.9206,5,5,66.0317,-5.96362,-16.2962,2.63777,0.800187,0.559196,1,1,295.505,-10.99,11.55,2.50429,-0.09638,0.13359,-0.03612,-0.03836,0.54306
-43.2621,0,0,48.2621,48.2621,5,5,66.557,-6.00492,-16.3171,-2.3943,1.2653,1.68305,1,1,296.888,-20.9825,16.9575,-2.5498,0.364658,1.25709,-0.03612,-0.03836,0.54306
-43.6004,0,0,48.6004,48.6004,5,5,67.0775,-6.02322,-16.3169,-2.39399,1.26883,1.67473,1,1,295.435,-4.1825,9.6425,-2.5498,0.364658,1.25709,-0.03612,-0.03836,0.54306
-43.916,0,0,48.916,48.916,5,5,67.5631,-6.02098,-16.3052,-3.83533,4.44493,0.65214,1,1,276.5,6.7025,1.19,-3.99721,3.53422,0.2501,-0.03612,-0.03836,0.54306
-44.2216,0,0,49.2216,49.2216,5,5,68.0332,-6.02754,-16.3035,-3.83522,4.44801,0.644579,1,1,267.312,-0.6125,3.6925,-3.99721,3.53422,0.2501,-0.03612,-0.03836,0.54306
-44.5457,0,0,49.5457,49.5457,5,5,68.5318,-6.04223,-16.3078,3.92324,-1.99479,-2.28927,1,1,282.835,-5.635,6.8075,3.79383,-2.90506,-2.65313,-0.03612,-0.03836,0.54306
-44.8736,0,0,49.8736,49.8736,5,5,69.0363,-6.08343,-16.332,3.92395,-1.99169,-2.29747,1,1,285.04,-21.945,17.115,3.79383,-2.90506,-2.65313,-0.03612,-0.03836,0.54306
-45.2103,0,0,50.2103,50.2103,5,5,69.5542,-6.12771,-16.3693,-0.406488,1.3611,0.419989,1,1,291.743,-29.6275,16.275,-0.55571,0.441152,0.051728,-0.03178,-0.07728,0.54656
-45.5245,0,0,50.5245,50.5245,5,5,70.0376,-6.13654,-16.3598,-0.406335,1.36398,0.412111,1,1,275.17,3.3075,6.51,-0.55571,0.441152,0.051728,-0.03178,-0.07728,0.54656
-45.8145,0,0,50.8145,50.8145,5,5,70.4838,-6.13463,-16.3274,1.43608,0.102712,-0.833389,1,1,255.675,18.095,5.0925,1.29454,-0.821426,-1.17693,-0.03178,-0.07728,0.54656
